time,ax,ay,az,atotal
0.002296924591064453,0.17,-0.04,0.1,0.2
0.012575149536132812,0.29,-0.06,-0.06,0.3
0.022617816925048828,0.32,-0.07,-0.15,0.36
0.03252887725830078,0.27,0.04,-0.44,0.51
0.04510688781738281,0.25,0.06,-0.49,0.55
0.052449941635131836,0.2,0.03,-0.3,0.36
0.06268692016601562,0.12,0.0,-0.13,0.17
0.07279682159423828,0.04,0.01,-0.02,0.04
0.08304882049560547,0.0,0.02,0.08,0.08
0.09594106674194336,0.0,0.05,0.05,0.07
0.10300111770629883,-0.07,0.03,-0.09,0.11
0.1129460334777832,-0.11,0.02,-0.16,0.19
0.12308311462402344,-0.05,0.05,-0.18,0.19
0.13313698768615723,0.0,0.09,-0.16,0.18
0.1466529369354248,0.05,0.16,-0.12,0.2
0.1531691551208496,0.05,0.16,-0.13,0.21
0.163316011428833,0.03,0.13,-0.16,0.2
0.1732921600341797,0.08,0.06,-0.32,0.33
0.18393611907958984,-0.16,0.15,-0.29,0.36
0.19355297088623047,-0.06,0.36,0.27,0.45
0.21239304542541504,-0.06,0.22,0.35,0.41
0.21353387832641602,-0.12,0.12,0.17,0.24
0.22381305694580078,-0.12,0.05,-0.06,0.14
0.23381900787353516,-0.12,0.02,-0.04,0.12
0.24402999877929688,-0.08,0.04,0.11,0.14
0.2631978988647461,-0.1,0.03,0.18,0.2
0.26412487030029297,-0.13,0.0,0.2,0.23
0.27411985397338867,-0.13,0.02,0.17,0.21
0.2840900421142578,-0.09,0.05,0.1,0.14
0.29442596435546875,-0.1,0.09,0.0,0.13
0.31333303451538086,-0.07,0.12,-0.14,0.19
0.314241886138916,-0.07,0.13,-0.22,0.26
0.324552059173584,-0.11,0.11,-0.2,0.25
0.33438897132873535,-0.07,0.03,-0.17,0.18
0.34470105171203613,-0.11,0.02,-0.04,0.11
0.3630080223083496,-0.16,0.01,0.15,0.21
0.3646121025085449,-0.17,0.03,0.19,0.25
0.3748021125793457,-0.21,0.06,0.19,0.28
0.38474416732788086,-0.2,0.07,0.2,0.29
0.395035982131958,-0.16,0.05,0.16,0.23
0.4134831428527832,-0.13,0.03,0.2,0.24
0.4149918556213379,-0.05,0.01,0.3,0.3
0.4252028465270996,-0.01,0.0,0.39,0.39
0.43517589569091797,-0.06,0.05,0.35,0.35
0.4454009532928467,-0.12,0.08,0.22,0.26
0.4628109931945801,-0.12,0.14,0.14,0.23
0.4653019905090332,-0.13,0.13,0.08,0.2
0.47537994384765625,-0.09,0.13,0.02,0.15
0.48532700538635254,-0.06,0.13,-0.01,0.14
0.49556493759155273,0.0,0.12,-0.04,0.12
0.5128769874572754,0.02,0.1,-0.1,0.14
0.5154550075531006,-0.04,0.07,-0.13,0.15
0.5257811546325684,0.01,0.06,-0.08,0.1
0.5356919765472412,0.06,0.07,0.05,0.1
0.545936107635498,0.08,0.07,0.1,0.14
0.562255859375,0.03,0.06,0.11,0.12
0.5659639835357666,0.01,0.06,0.09,0.1
0.5761198997497559,-0.01,0.1,-0.04,0.1
0.5861649513244629,-0.02,0.09,-0.18,0.2
0.5962159633636475,0.0,0.09,-0.23,0.24
0.6119399070739746,-0.03,0.08,-0.17,0.19
0.6163520812988281,-0.01,0.05,-0.13,0.13
0.6264019012451172,0.02,0.06,-0.05,0.08
0.6364178657531738,0.01,0.08,0.03,0.08
0.6467349529266357,0.02,0.12,0.04,0.12
0.6623668670654297,0.03,0.14,-0.09,0.16
0.6674339771270752,0.0,0.11,-0.2,0.22
0.6767020225524902,0.0,0.05,-0.11,0.12
0.6869359016418457,0.06,0.05,0.21,0.22
0.6968140602111816,0.05,0.04,0.4,0.4
0.7133049964904785,0.08,0.02,0.36,0.36
0.7172660827636719,0.1,0.03,0.17,0.19
0.7271990776062012,0.01,0.07,0.01,0.07
0.7370738983154297,0.0,0.08,0.04,0.08
0.7473258972167969,0.02,0.12,0.15,0.19
0.7629580497741699,-0.01,0.12,0.08,0.14
0.7673399448394775,0.03,0.16,-0.06,0.17
0.7775640487670898,0.01,0.18,-0.15,0.23
0.7875771522521973,-0.03,0.16,-0.14,0.21
0.7976608276367188,-0.07,0.08,-0.04,0.11
0.8128149509429932,-0.06,0.02,0.11,0.12
0.8175439834594727,0.0,-0.02,0.18,0.18
0.8278059959411621,0.05,-0.03,0.19,0.19
0.8377070426940918,0.06,-0.03,0.12,0.13
0.8478150367736816,0.07,-0.02,0.01,0.07
0.86285400390625,0.1,0.0,-0.08,0.12
0.8678379058837891,0.1,0.02,-0.03,0.1
0.8781161308288574,0.07,0.04,0.09,0.12
0.8881559371948242,0.04,0.04,0.17,0.17
0.8981528282165527,0.05,0.06,0.15,0.16
0.9121060371398926,0.12,0.08,0.02,0.14
0.9182119369506836,0.18,0.01,-0.1,0.2
0.9284648895263672,0.19,0.0,-0.02,0.19
0.9384579658508301,0.13,-0.01,0.22,0.25
0.9484679698944092,0.08,-0.02,0.33,0.34
0.960731029510498,0.07,0.02,0.25,0.26
0.9685578346252441,0.08,0.01,0.11,0.13
0.978632926940918,0.1,0.03,-0.03,0.1
0.988706111907959,0.04,0.05,-0.02,0.06
0.9987430572509766,0.0,0.06,0.08,0.1
1.0093979835510254,-0.02,0.07,0.1,0.12
1.0188908576965332,-0.02,0.03,-0.04,0.05
1.0290110111236572,-0.01,0.02,-0.13,0.13
1.0389580726623535,-0.04,-0.02,-0.05,0.06
1.049036979675293,-0.03,-0.04,0.1,0.11
1.0595860481262207,-0.03,-0.06,0.15,0.16
1.0693800449371338,0.03,-0.09,0.06,0.11
1.0793218612670898,0.05,-0.07,0.0,0.08
1.0892901420593262,0.05,-0.02,0.01,0.05
1.0993280410766602,0.02,0.0,0.01,0.02
1.1095638275146484,0.02,0.04,-0.04,0.06
1.1194281578063965,-0.01,0.09,-0.1,0.13
1.1296169757843018,0.0,0.08,-0.14,0.16
1.1395540237426758,0.01,0.09,-0.11,0.14
1.1600661277770996,0.06,0.06,-0.08,0.11
1.1608760356903076,0.09,0.02,-0.03,0.09
1.1698970794677734,0.06,-0.02,0.03,0.06
1.1799449920654297,0.02,-0.07,0.16,0.17
1.1901888847351074,0.01,-0.09,0.28,0.29
1.210103988647461,0.02,-0.1,0.32,0.33
1.210874080657959,0.05,-0.11,0.25,0.27
1.2202529907226562,0.06,-0.08,0.17,0.19
1.2305998802185059,0.07,-0.02,0.12,0.14
1.240260124206543,0.04,0.04,0.02,0.06
1.2584869861602783,0.02,0.07,-0.09,0.11
1.2602620124816895,0.04,0.09,-0.21,0.23
1.270509958267212,0.05,0.09,-0.22,0.24
1.2804970741271973,0.02,0.05,-0.1,0.11
1.2906360626220703,-0.01,0.01,0.0,0.01
1.3080179691314697,0.0,-0.02,0.0,0.02
1.3108859062194824,-0.01,-0.05,-0.01,0.05
1.3207788467407227,-0.02,-0.04,0.03,0.05
1.3311080932617188,-0.04,-0.06,0.08,0.1
1.3409709930419922,-0.02,-0.07,0.11,0.13
1.3577818870544434,0.03,-0.07,0.11,0.13
1.3609349727630615,0.05,-0.07,0.05,0.09
1.3712170124053955,0.06,-0.06,-0.02,0.08
1.3810889720916748,0.04,-0.02,-0.05,0.06
1.3911428451538086,0.04,0.04,-0.06,0.08
1.4077701568603516,0.03,0.09,-0.09,0.13
1.4113659858703613,0.06,0.12,-0.15,0.2
1.4212839603424072,0.12,0.12,-0.15,0.22
1.4316070079803467,0.15,0.09,-0.13,0.21
1.4416229724884033,0.13,0.04,-0.07,0.15
1.457705020904541,0.13,0.01,0.06,0.14
1.4615869522094727,0.08,-0.03,0.17,0.19
1.4721109867095947,0.03,-0.05,0.21,0.21
1.4817180633544922,0.02,-0.04,0.21,0.21
1.4919171333312988,-0.03,-0.01,0.18,0.18
1.5082240104675293,-0.01,0.0,0.14,0.14
1.5120611190795898,-0.01,0.02,0.12,0.12
1.522028923034668,0.0,0.02,0.06,0.06
1.5324578285217285,0.03,0.04,-0.02,0.05
1.5424518585205078,0.1,0.04,-0.1,0.14
1.5577998161315918,0.14,0.02,-0.09,0.16
1.562173843383789,0.13,-0.01,0.03,0.13
1.5727369785308838,0.09,-0.03,0.18,0.2
1.5824689865112305,0.03,-0.06,0.25,0.25
1.5925359725952148,0.0,-0.08,0.25,0.26
1.6083488464355469,-0.02,-0.07,0.27,0.27
1.6126608848571777,0.0,-0.07,0.26,0.26
1.6227588653564453,0.05,-0.06,0.17,0.18
1.632735013961792,0.13,-0.04,0.04,0.14
1.6431021690368652,0.16,0.0,-0.05,0.16
1.6578550338745117,0.18,0.0,-0.06,0.18
1.6627840995788574,0.13,0.0,-0.05,0.13
1.6732749938964844,0.1,-0.02,-0.05,0.11
1.6830830574035645,0.01,-0.03,-0.07,0.07
1.693160057067871,-0.03,-0.06,-0.08,0.1
1.7085881233215332,0.0,-0.05,-0.01,0.05
1.7133679389953613,0.04,-0.04,0.06,0.08
1.7234339714050293,0.07,-0.03,0.08,0.11
1.7336230278015137,0.11,-0.04,0.04,0.12
1.7436609268188477,0.14,-0.05,0.03,0.15
1.7579808235168457,0.08,-0.05,0.09,0.13
1.763577938079834,0.05,-0.06,0.12,0.14
1.773941993713379,0.03,-0.07,0.12,0.14
1.7836761474609375,-0.01,-0.05,0.09,0.1
1.7938060760498047,0.0,-0.04,0.03,0.05
1.8084559440612793,-0.01,-0.01,-0.03,0.03
1.8139309883117676,0.0,0.01,-0.08,0.08
1.8239970207214355,-0.01,0.07,-0.05,0.08
1.834010124206543,-0.03,0.08,-0.04,0.09
1.8440771102905273,-0.06,0.06,0.05,0.09
1.8584270477294922,-0.05,0.06,0.14,0.16
1.8643808364868164,-0.03,0.02,0.12,0.12
1.8744149208068848,-0.01,0.0,0.09,0.09
1.8842201232910156,-0.01,0.01,0.11,0.11
1.894765853881836,-0.02,0.01,0.12,0.12
1.9079029560089111,-0.02,-0.02,0.06,0.06
1.9145889282226562,0.0,-0.02,0.02,0.02
1.9249801635742188,-0.01,-0.03,0.06,0.06
1.9348430633544922,-0.01,-0.04,0.14,0.14
1.944869041442871,-0.01,-0.04,0.18,0.18
1.9581830501556396,-0.02,-0.03,0.16,0.16
1.9648709297180176,0.01,-0.02,0.11,0.11
1.9751229286193848,0.02,-0.01,0.09,0.09
1.9849979877471924,0.0,-0.02,0.09,0.09
1.9956049919128418,-0.02,-0.03,0.12,0.12
2.007761001586914,0.0,-0.03,0.13,0.13
2.0152339935302734,0.02,-0.04,0.05,0.06
2.0255420207977295,0.01,-0.03,0.0,0.03
2.035346031188965,0.03,-0.01,-0.01,0.03
2.0455288887023926,0.04,-0.02,-0.04,0.06
2.057826042175293,0.02,-0.02,0.02,0.03
2.0659470558166504,0.0,-0.03,0.11,0.11
2.0756888389587402,0.0,-0.03,0.13,0.13
2.0855860710144043,0.0,-0.05,0.08,0.09
2.096007823944092,0.0,-0.03,0.08,0.08
2.1078081130981445,-0.01,0.0,0.12,0.12
2.1158180236816406,-0.03,0.0,0.11,0.11
2.1264238357543945,-0.01,0.03,0.06,0.06
2.1360199451446533,-0.01,0.03,-0.01,0.03
2.146246910095215,0.01,0.03,-0.03,0.04
2.157681941986084,0.01,0.01,0.0,0.01
2.1662800312042236,-0.01,0.0,0.08,0.08
2.1763439178466797,-0.03,-0.01,0.11,0.11
2.1862120628356934,-0.04,-0.04,0.07,0.09
2.196774959564209,-0.02,-0.05,0.1,0.11
2.207697868347168,-0.01,-0.03,0.18,0.18
2.2169418334960938,0.0,0.0,0.15,0.15
2.226613998413086,0.0,0.0,0.06,0.06
2.236905097961426,0.02,0.01,0.01,0.02
2.246706008911133,0.03,0.03,-0.01,0.04
2.257887840270996,0.04,0.01,-0.06,0.07
2.2671279907226562,0.05,0.01,-0.09,0.1
2.2770049571990967,0.05,0.0,-0.06,0.07
2.2869019508361816,0.05,-0.01,0.06,0.07
2.29732608795166,0.06,0.0,0.15,0.16
2.307587146759033,0.05,0.01,0.17,0.17
2.317141056060791,0.04,0.0,0.12,0.12
2.327306032180786,0.03,0.0,0.08,0.08
2.337501049041748,0.02,-0.02,0.06,0.06
2.3473470211029053,0.02,-0.04,0.08,0.09
2.3575668334960938,0.0,-0.06,0.15,0.16
2.367486000061035,0.0,-0.06,0.14,0.15
2.3776869773864746,0.01,-0.04,0.1,0.1
2.387692928314209,-0.01,-0.01,0.03,0.03
2.397963047027588,-0.05,0.01,-0.05,0.07
2.407963991165161,0.0,0.05,-0.05,0.07
2.417929172515869,0.04,0.07,-0.06,0.1
2.4279918670654297,0.05,0.06,-0.05,0.09
2.4382448196411133,0.05,0.06,-0.01,0.07
2.4480409622192383,0.05,0.04,0.02,0.06
2.458256959915161,0.07,0.04,0.06,0.1
2.4680659770965576,0.05,0.03,0.09,0.1
2.478376865386963,-0.01,-0.01,0.13,0.13
2.488351821899414,0.0,-0.02,0.2,0.2
2.498459815979004,0.02,-0.01,0.22,0.22
2.5084519386291504,0.0,0.0,0.17,0.17
2.5184600353240967,-0.02,0.02,0.05,0.05
2.5286598205566406,-0.03,0.03,-0.02,0.04
2.5387630462646484,-0.04,0.04,-0.01,0.05
2.5487709045410156,-0.02,0.03,0.02,0.04
2.5595860481262207,-0.03,0.0,0.1,0.1
2.5687499046325684,-0.02,-0.03,0.18,0.18
2.5789990425109863,0.02,-0.03,0.2,0.2
2.5890698432922363,0.01,-0.04,0.11,0.11
2.5991711616516113,0.0,-0.03,0.05,0.05
2.6102559566497803,-0.02,0.0,0.06,0.06
2.6192569732666016,-0.06,0.02,0.1,0.11
2.6293349266052246,-0.09,0.04,0.07,0.12
2.6393280029296875,-0.08,0.05,0.04,0.1
2.649444103240967,-0.03,0.06,0.03,0.07
2.6612980365753174,0.0,0.08,0.06,0.1
2.669464111328125,0.03,0.06,0.09,0.11
2.679603099822998,0.02,0.03,0.13,0.13
2.6896910667419434,0.01,0.02,0.15,0.15
2.6996099948883057,0.0,0.02,0.14,0.14
2.7120859622955322,-0.02,-0.02,0.08,0.08
2.7199180126190186,-0.03,0.01,0.03,0.04
2.7299509048461914,-0.01,0.02,0.0,0.02
2.7400460243225098,-0.03,0.02,-0.05,0.06
2.7502880096435547,-0.06,0.03,-0.06,0.09
2.7602930068969727,-0.08,0.04,-0.08,0.12
2.778641939163208,-0.12,0.03,-0.14,0.18
2.78021502494812,-0.08,0.02,-0.16,0.18
2.7904558181762695,-0.05,-0.01,-0.13,0.13
2.8003621101379395,-0.04,-0.05,-0.04,0.07
2.8105809688568115,-0.01,-0.08,0.07,0.1
2.8281679153442383,-0.01,-0.09,0.13,0.15
2.830656051635742,-0.03,-0.07,0.15,0.16
2.8407750129699707,-0.06,-0.03,0.15,0.16
2.8506550788879395,-0.05,0.01,0.11,0.12
2.8609371185302734,-0.03,0.05,0.03,0.06
2.8791980743408203,-0.01,0.05,-0.07,0.08
2.8809518814086914,-0.01,0.05,-0.08,0.09
2.891140937805176,0.02,0.05,-0.05,0.07
2.9012110233306885,0.04,0.03,0.0,0.05
2.9112789630889893,0.04,0.01,0.01,0.04
2.9294590950012207,0.03,-0.01,0.02,0.03
2.9313080310821533,0.02,-0.01,0.06,0.06
2.94148588180542,0.01,-0.03,0.12,0.12
2.9512739181518555,0.02,-0.04,0.18,0.18
2.9615559577941895,0.01,-0.03,0.2,0.2
2.9794199466705322,0.02,-0.03,0.19,0.19
2.9814701080322266,0.03,-0.03,0.17,0.17
2.99173903465271,0.02,-0.01,0.12,0.12
3.001680850982666,0.0,-0.01,0.06,0.06
3.01180100440979,0.05,0.01,0.02,0.05
3.0295071601867676,0.08,0.02,0.01,0.08
3.031787872314453,0.06,0.01,-0.02,0.06
3.04213809967041,0.05,0.01,0.0,0.05
3.0519490242004395,0.02,0.03,0.03,0.04
3.0621590614318848,-0.02,0.02,0.03,0.04
3.0789828300476074,-0.03,0.01,0.08,0.08
3.0823349952697754,-0.01,0.02,0.11,0.11
3.0924601554870605,0.01,0.0,0.09,0.09
3.102363109588623,0.01,-0.01,0.07,0.07
3.112462043762207,0.02,-0.01,0.07,0.07
3.129312038421631,0.01,-0.01,0.1,0.1
3.1325600147247314,-0.04,0.0,0.13,0.13
3.1428120136260986,-0.1,-0.01,0.12,0.15
3.1525919437408447,-0.08,-0.01,0.11,0.13
3.162971019744873,-0.04,0.0,0.11,0.11
3.1793980598449707,-0.02,0.01,0.07,0.07
3.182969093322754,0.0,0.02,0.06,0.06
3.193002939224243,0.02,0.02,0.04,0.04
3.2030439376831055,0.03,0.01,0.0,0.03
3.2131381034851074,0.01,0.01,0.0,0.01
3.229166030883789,0.05,0.02,0.01,0.05
3.2336180210113525,0.05,0.02,0.01,0.05
3.2433290481567383,0.03,0.02,0.01,0.03
3.2532458305358887,0.05,0.04,0.04,0.07
3.2636051177978516,0.06,0.01,0.01,0.06
3.2795169353485107,0.05,0.01,0.0,0.05
3.2836649417877197,0.03,-0.01,0.04,0.05
3.293825149536133,-0.01,-0.02,0.1,0.1
3.3038339614868164,-0.02,-0.01,0.12,0.12
3.3138041496276855,0.0,-0.01,0.1,0.1
3.3290481567382812,0.03,0.01,0.05,0.05
3.333940029144287,0.04,0.0,0.02,0.04
3.3441460132598877,0.02,-0.03,0.01,0.03
3.3540079593658447,0.01,-0.03,0.06,0.06
3.3642759323120117,0.0,-0.04,0.07,0.08
3.379075050354004,-0.01,-0.02,0.08,0.08
3.3842248916625977,0.0,0.01,0.05,0.05
3.3943700790405273,-0.02,0.0,0.02,0.02
3.404345989227295,0.0,0.02,0.03,0.03
3.4145140647888184,0.03,0.03,0.03,0.05
3.4298160076141357,0.03,0.05,-0.01,0.05
3.4345669746398926,0.01,0.06,-0.05,0.07
3.444720983505249,0.03,0.06,-0.03,0.07
3.4548490047454834,0.03,0.04,-0.01,0.05
3.4650120735168457,-0.01,0.01,0.01,0.01
3.4795780181884766,-0.04,0.0,0.01,0.04
3.4848971366882324,-0.02,-0.01,0.06,0.06
3.4949889183044434,-0.04,-0.02,0.06,0.07
3.5051121711730957,-0.05,-0.01,0.04,0.06
3.5152039527893066,-0.07,0.0,0.02,0.07
3.5295679569244385,-0.08,-0.01,-0.01,0.08
3.535207986831665,-0.07,0.0,-0.05,0.08
3.5452728271484375,-0.04,-0.01,-0.06,0.07
3.555266857147217,-0.01,-0.03,-0.02,0.03
3.56552791595459,0.0,-0.02,0.02,0.02
3.578577995300293,0.0,0.01,0.03,0.03
3.5857348442077637,-0.01,0.03,0.01,0.03
3.595585823059082,-0.01,0.05,0.0,0.05
3.6055679321289062,-0.01,0.05,0.0,0.05
3.615889072418213,0.03,0.02,0.02,0.04
3.629791021347046,0.07,0.01,0.07,0.09
3.635866165161133,0.06,-0.03,0.09,0.11
3.6460671424865723,0.04,-0.05,0.14,0.15
3.6560311317443848,0.03,-0.04,0.14,0.14
3.6661109924316406,0.0,-0.01,0.08,0.08
3.679898977279663,-0.01,0.03,0.01,0.03
3.6863179206848145,0.01,0.05,-0.04,0.06
3.696115016937256,0.02,0.07,-0.04,0.08
3.7063698768615723,0.02,0.07,0.01,0.07
3.7289199829101562,-0.01,0.06,0.04,0.07
3.7298221588134766,-0.07,0.05,0.08,0.11
3.736575126647949,-0.08,0.04,0.1,0.13
3.7466230392456055,-0.07,0.03,0.11,0.13
3.7567059993743896,-0.08,0.02,0.11,0.13
3.7787461280822754,-0.05,0.0,0.11,0.12
3.779621124267578,-0.02,0.01,0.13,0.13
3.7867588996887207,-0.02,0.01,0.13,0.13
3.796849012374878,-0.02,0.01,0.12,0.12
3.8069748878479004,-0.03,0.04,0.07,0.08
3.8298869132995605,-0.03,0.06,0.04,0.07
3.830747127532959,-0.02,0.07,0.0,0.07
3.8372600078582764,0.0,0.07,-0.03,0.07
3.847259998321533,0.0,0.05,-0.05,0.07
3.8572030067443848,0.0,0.03,0.01,0.03
3.879246950149536,-0.03,0.0,0.11,0.11
3.8801541328430176,-0.07,-0.04,0.2,0.21
3.8876399993896484,-0.05,-0.05,0.25,0.25
3.8976058959960938,0.0,-0.05,0.21,0.21
3.9077868461608887,0.01,-0.03,0.14,0.14
3.928968906402588,0.04,-0.02,0.08,0.09
3.929752826690674,0.07,0.0,0.04,0.08
3.937851905822754,0.1,0.02,0.01,0.1
3.9479589462280273,0.07,-0.01,0.01,0.07
3.9579849243164062,0.04,-0.07,0.08,0.11
3.9787490367889404,0.03,-0.1,0.23,0.25
3.979508876800537,0.03,-0.13,0.31,0.33
3.9882149696350098,0.04,-0.13,0.26,0.29
3.9982638359069824,0.02,-0.1,0.14,0.17
4.008450984954834,0.02,-0.08,0.06,0.1
4.014153003692627,0.02,-0.08,0.06,0.1
4.027780055999756,0.01,-0.01,0.0,0.01
4.034325122833252,-0.03,0.03,-0.08,0.09
4.044597148895264,-0.04,0.06,-0.12,0.13
4.054672956466675,-0.03,0.11,-0.13,0.17
4.064611911773682,0.0,0.12,-0.09,0.15
4.077916145324707,0.01,0.14,-0.09,0.16
4.084709167480469,0.04,0.15,-0.11,0.19
4.094994068145752,0.08,0.14,-0.1,0.18
4.105587959289551,0.08,0.13,-0.09,0.17
4.115041017532349,0.05,0.07,-0.08,0.11
4.12908411026001,0.01,0.04,0.03,0.05
4.135113954544067,-0.01,-0.01,0.14,0.14
4.145056962966919,-0.07,-0.04,0.22,0.23
4.155259132385254,-0.1,-0.07,0.26,0.28
4.165317058563232,-0.09,-0.07,0.25,0.27
4.177927017211914,-0.05,-0.04,0.18,0.19
4.185364007949829,0.0,0.0,0.07,0.07
4.1955060958862305,0.01,0.02,-0.04,0.04
4.205680847167969,0.04,0.02,-0.06,0.07
4.215744972229004,0.07,0.02,0.0,0.07
4.228373050689697,0.11,0.02,0.03,0.11
4.23573112487793,0.12,0.04,0.03,0.13
4.2458720207214355,0.09,0.06,-0.01,0.1
4.256050109863281,0.06,0.07,-0.03,0.09
4.266162872314453,0.03,0.07,0.0,0.07
4.279620170593262,0.02,0.06,0.05,0.08
4.286123991012573,0.02,0.04,0.07,0.08
4.296342849731445,0.01,0.01,0.07,0.07
4.306373119354248,-0.03,-0.03,0.07,0.08
4.328467845916748,-0.04,-0.03,0.08,0.09
4.329291820526123,-0.04,-0.04,0.1,0.11
4.33644700050354,-0.03,-0.03,0.13,0.13
4.346489906311035,-0.03,0.0,0.12,0.12
4.356726169586182,-0.03,0.01,0.07,0.07
4.3796069622039795,-0.04,0.02,0.02,0.04
4.380620002746582,-0.04,0.03,0.04,0.06
4.390858173370361,-0.08,0.03,0.04,0.09
4.400738954544067,-0.09,0.02,0.02,0.09
4.410982131958008,-0.09,0.02,0.02,0.09
4.429265022277832,-0.08,0.02,0.01,0.08
4.430969953536987,-0.05,0.01,0.03,0.05
4.441077947616577,-0.03,0.0,0.07,0.07
4.451092958450317,-0.04,-0.01,0.09,0.09
4.461112022399902,-0.05,-0.03,0.08,0.09
4.478078842163086,-0.06,-0.03,0.09,0.11
4.481176853179932,-0.06,-0.04,0.1,0.12
4.491458892822266,-0.05,-0.04,0.07,0.09
4.501368999481201,-0.02,-0.05,0.05,0.07
4.5116119384765625,-0.03,-0.05,0.04,0.07
4.528468132019043,-0.01,-0.04,0.03,0.05
4.5315351486206055,0.0,-0.03,0.03,0.04
4.54177188873291,0.02,0.0,0.02,0.02
4.551692962646484,0.03,0.01,-0.01,0.03
4.561861991882324,0.03,0.02,-0.03,0.04
4.578809976577759,0.02,0.02,0.02,0.03
4.581899166107178,-0.02,0.01,0.06,0.06
4.592080116271973,-0.03,-0.01,0.14,0.14
4.602108955383301,-0.04,-0.01,0.21,0.21
4.612306118011475,-0.06,-0.03,0.2,0.21
4.62872314453125,-0.05,-0.04,0.17,0.18
4.632192134857178,-0.04,-0.03,0.12,0.13
4.642429828643799,-0.04,-0.05,0.06,0.08
4.65247106552124,-0.02,-0.05,0.01,0.05
4.662544012069702,-0.02,-0.06,-0.02,0.06
4.6796441078186035,-0.05,-0.07,0.0,0.08
4.682570934295654,-0.06,-0.08,0.04,0.1
4.692683935165405,-0.06,-0.07,0.04,0.1
4.702710151672363,-0.05,-0.03,-0.02,0.06
4.712939023971558,-0.02,-0.01,-0.1,0.1
4.729587078094482,-0.02,0.0,-0.1,0.1
4.732915878295898,-0.02,0.02,-0.01,0.03
4.7430579662323,-0.03,0.0,0.08,0.08
4.753076076507568,-0.02,0.0,0.15,0.15
4.763176918029785,-0.01,-0.03,0.15,0.15
4.779293060302734,-0.02,-0.04,0.16,0.16
4.783612966537476,-0.03,-0.04,0.2,0.2
4.793447017669678,-0.06,-0.03,0.17,0.18
4.803336143493652,-0.04,-0.03,0.13,0.13
4.8135881423950195,-0.08,-0.01,0.12,0.14
4.829061985015869,-0.09,-0.01,0.17,0.19
4.833611965179443,-0.05,0.01,0.24,0.24
4.8436479568481445,-0.05,0.02,0.19,0.19
4.853877067565918,-0.04,0.0,0.04,0.05
4.863779067993164,0.01,0.0,-0.05,0.05
4.879178047180176,0.03,-0.02,-0.07,0.07
4.8837809562683105,0.03,-0.03,-0.03,0.05
4.8940749168396,0.02,-0.05,0.03,0.06
4.9041149616241455,0.01,-0.06,0.1,0.11
4.914187908172607,0.0,-0.07,0.12,0.13
4.928635120391846,0.02,-0.05,0.09,0.1
4.934203147888184,0.02,-0.01,0.07,0.07
4.944313049316406,0.01,0.01,0.05,0.05
4.95449686050415,0.06,-0.01,0.05,0.07
4.964460849761963,0.06,0.0,0.06,0.08
4.978085994720459,0.08,-0.07,0.04,0.11
4.984534978866577,-0.13,-0.07,0.17,0.22
4.994809150695801,0.04,0.11,0.06,0.13
5.004750967025757,0.07,0.08,-0.12,0.16
5.014891147613525,-0.05,0.03,0.03,0.06
5.028869152069092,-0.04,-0.03,0.37,0.37
5.034827947616577,-0.03,-0.14,0.51,0.52
5.044942855834961,-0.1,-0.17,0.42,0.46
5.0555548667907715,-0.07,0.08,0.07,0.12
5.065062999725342,0.0,0.09,-0.23,0.24
