time,ax,ay,az,atotal
0.004914760589599609,-0.67,0.99,1.61,2.0
0.013000965118408203,-0.5,0.08,2.26,2.31
0.027543067932128906,-0.1,-0.86,2.94,3.06
0.033110857009887695,0.04,-1.71,3.33,3.74
0.043135881423950195,0.07,-2.18,3.47,4.09
0.05313682556152344,0.03,-2.03,3.08,3.68
0.06336593627929688,-0.14,-1.62,1.93,2.52
0.07763886451721191,-0.58,-1.07,1.15,1.67
0.08319592475891113,-0.53,-0.56,0.2,0.79
0.09342384338378906,-0.7,-0.39,-0.51,0.94
0.10324478149414062,-0.81,-0.48,-0.93,1.32
0.11366796493530273,-0.72,-0.45,-0.92,1.25
0.12793588638305664,-0.65,-0.41,-0.52,0.92
0.13437891006469727,-0.54,-0.36,-0.18,0.67
0.14384174346923828,-0.38,-0.28,0.09,0.48
0.15371489524841309,-0.27,-0.28,0.22,0.44
0.16405773162841797,-0.18,-0.37,0.15,0.43
0.17788076400756836,-0.12,-0.5,0.02,0.51
0.18441295623779297,-0.04,-0.7,-0.11,0.7
0.19419097900390625,0.03,-0.95,-0.3,0.99
0.2039790153503418,0.14,-1.18,-0.54,1.3
0.21426773071289062,0.18,-1.23,-0.75,1.45
0.22889995574951172,0.05,-1.15,-0.88,1.44
0.23441076278686523,0.11,-0.97,-1.34,1.65
0.24446988105773926,0.06,-0.75,-1.98,2.11
0.2543299198150635,-0.03,-0.55,-2.58,2.63
0.2644829750061035,-0.08,-0.31,-2.87,2.88
0.2778749465942383,-0.04,-0.13,-2.77,2.77
0.2844867706298828,-0.02,-0.01,-2.52,2.52
0.29473304748535156,0.11,0.06,-2.23,2.23
0.3047049045562744,0.18,0.06,-1.98,1.98
0.314708948135376,0.18,0.02,-1.81,1.81
0.3278160095214844,0.2,0.02,-1.69,1.7
0.3347740173339844,0.12,-0.02,-1.56,1.56
0.3450617790222168,-0.02,-0.01,-1.47,1.47
0.35514187812805176,-0.11,0.07,-1.38,1.38
0.36525678634643555,-0.26,0.14,-1.2,1.23
0.37946295738220215,-0.39,0.19,-0.94,1.03
0.38521289825439453,-0.47,0.18,-0.59,0.77
0.39542198181152344,-0.67,0.14,0.01,0.68
0.40543603897094727,-0.38,0.26,0.39,0.6
0.41539907455444336,-0.57,0.24,0.62,0.87
0.4290890693664551,-0.58,0.35,0.76,1.01
0.43553996086120605,-0.6,0.67,0.55,1.05
0.4455249309539795,-0.67,0.87,0.14,1.1
0.45572495460510254,-0.58,1.11,-0.13,1.25
0.4656968116760254,-0.28,1.24,-0.37,1.32
0.4788780212402344,-0.18,1.15,-0.42,1.23
0.4858219623565674,-0.04,1.0,-0.16,1.01
0.4959688186645508,0.04,0.78,0.57,0.96
0.5060720443725586,0.08,0.4,1.43,1.48
0.5160388946533203,-0.07,0.14,2.3,2.3
0.5295488834381104,-0.24,-0.08,2.94,2.95
0.536247730255127,-0.33,0.07,3.14,3.15
0.546259880065918,-0.29,0.73,2.97,3.07
0.5562648773193359,0.02,1.21,2.35,2.64
0.5662140846252441,0.42,1.35,1.62,2.15
0.5799517631530762,0.47,1.23,1.39,1.91
0.5865139961242676,0.55,0.97,1.33,1.73
0.5965099334716797,0.26,0.4,1.81,1.87
0.6066107749938965,0.08,-0.3,2.46,2.47
0.6168129444122314,0.16,-0.89,3.14,3.26
0.6311769485473633,0.21,-1.4,3.62,3.88
0.636664867401123,0.09,-1.72,3.64,4.02
0.6468088626861572,0.36,-1.75,2.94,3.44
0.657012939453125,0.57,-1.36,2.02,2.5
0.6676309108734131,0.59,-1.16,1.02,1.65
0.6773810386657715,0.55,-0.96,0.23,1.13
0.6962108612060547,0.54,-0.77,-0.25,0.97
0.6973378658294678,0.41,-0.72,-0.58,1.01
0.7074248790740967,0.29,-0.62,-0.85,1.09
0.7176079750061035,0.29,-0.46,-1.0,1.13
0.7274749279022217,0.34,-0.33,-0.9,1.01
0.745032787322998,0.36,-0.3,-0.69,0.83
0.7473130226135254,0.38,-0.53,-0.5,0.82
0.7574939727783203,0.38,-0.97,-0.33,1.09
0.7675929069519043,0.32,-1.38,-0.08,1.41
0.7777738571166992,0.26,-1.64,0.12,1.66
0.7946228981018066,0.16,-1.68,0.27,1.7
0.7976469993591309,0.0,-1.49,0.26,1.51
0.8080220222473145,-0.09,-1.23,0.0,1.23
0.8179168701171875,-0.15,-0.91,-0.56,1.07
0.8280429840087891,-0.13,-0.6,-1.3,1.43
0.8441998958587646,-0.07,-0.33,-1.98,2.0
0.8480968475341797,0.02,-0.15,-2.58,2.58
0.8582229614257812,0.18,-0.05,-2.99,2.99
0.8682808876037598,0.21,0.0,-3.12,3.12
0.8783628940582275,0.27,0.02,-2.95,2.96
0.894463062286377,0.26,0.04,-2.61,2.62
0.898439884185791,0.24,-0.01,-2.31,2.32
0.9085698127746582,0.29,-0.03,-2.07,2.09
0.9185259342193604,0.28,0.02,-1.95,1.97
0.9287679195404053,0.29,0.05,-1.89,1.91
0.9445919990539551,0.27,0.07,-1.74,1.76
0.9487228393554688,0.24,0.09,-1.56,1.58
0.9589059352874756,0.21,0.13,-1.41,1.43
0.9689369201660156,0.21,0.17,-1.22,1.24
0.9789738655090332,0.21,0.26,-0.91,0.96
0.9944930076599121,0.23,0.36,-0.59,0.72
0.9990558624267578,0.3,0.5,-0.26,0.63
1.0092878341674805,0.33,0.62,-0.05,0.7
1.01938796043396,0.34,0.78,-0.03,0.85
1.0293760299682617,0.3,1.0,-0.13,1.05
1.045022964477539,0.21,1.18,-0.21,1.21
1.0493988990783691,0.16,1.34,-0.22,1.36
1.0594639778137207,0.16,1.48,-0.07,1.49
1.0695757865905762,0.14,1.52,0.04,1.52
1.0797090530395508,0.01,1.39,0.28,1.41
1.0942869186401367,0.41,1.25,0.58,1.43
1.0997247695922852,0.41,1.03,0.7,1.31
1.1098859310150146,0.46,0.57,1.0,1.23
1.1199729442596436,0.47,0.17,1.53,1.6
1.1300468444824219,0.38,-0.06,2.31,2.34
1.1450767517089844,0.22,-0.05,2.77,2.77
1.1500239372253418,0.07,0.32,2.76,2.77
1.1602368354797363,0.01,1.48,2.5,2.9
1.1703579425811768,-0.09,2.29,2.01,3.04
1.180398941040039,-0.36,2.46,1.66,2.98
1.1952259540557861,-0.7,2.34,1.63,2.93
1.2009530067443848,-0.76,1.9,1.87,2.77
1.2104949951171875,-0.6,0.93,2.41,2.65
1.2206878662109375,-0.5,-0.36,3.31,3.36
1.2306568622589111,-0.3,-1.68,4.33,4.65
1.2450299263000488,-0.15,-2.75,5.08,5.77
1.250946044921875,-0.11,-3.05,5.17,6.0
1.260861873626709,-0.19,-2.7,4.21,5.0
1.271012783050537,-0.46,-2.19,2.42,3.29
1.2809689044952393,-0.58,-1.57,0.5,1.74
1.2949557304382324,-0.73,-1.12,-1.02,1.68
1.3010950088500977,-0.93,-0.87,-1.85,2.24
1.311128854751587,-0.95,-0.82,-2.05,2.4
1.321225881576538,-0.88,-0.77,-1.64,2.01
1.3313188552856445,-0.63,-0.69,-0.9,1.29
1.344566822052002,-0.51,-0.71,-0.22,0.9
1.3513517379760742,-0.44,-0.86,0.15,0.97
1.3615989685058594,-0.19,-1.0,0.23,1.04
1.3716950416564941,0.04,-1.24,0.26,1.26
1.381692886352539,0.12,-1.38,0.28,1.41
1.394399881362915,0.12,-1.43,0.1,1.43
1.4016308784484863,0.08,-1.4,-0.36,1.44
1.412013053894043,0.07,-1.27,-0.97,1.59
1.4220190048217773,0.1,-1.0,-1.67,1.94
1.4320769309997559,0.13,-0.68,-2.38,2.47
1.444882869720459,0.2,-0.41,-3.0,3.03
1.4522228240966797,0.25,-0.23,-3.42,3.43
1.4622619152069092,0.25,-0.08,-3.51,3.51
1.4723167419433594,0.23,0.03,-3.32,3.32
1.4822697639465332,0.18,0.06,-3.01,3.01
1.4948699474334717,0.13,0.23,-2.75,2.76
1.5023689270019531,0.12,0.34,-2.64,2.66
1.512542963027954,0.04,0.45,-2.5,2.54
1.5226330757141113,-0.05,0.48,-2.31,2.35
1.5326347351074219,-0.15,0.45,-2.14,2.19
1.5451860427856445,-0.24,0.41,-1.96,2.01
1.5528059005737305,-0.31,0.33,-1.81,1.86
1.5628328323364258,-0.38,0.22,-1.57,1.63
1.57293701171875,-0.38,0.13,-1.16,1.22
1.5829598903656006,-0.43,0.11,-0.64,0.77
1.594876766204834,-0.44,0.14,-0.13,0.47
1.6029257774353027,-0.43,0.24,0.3,0.57
1.6130938529968262,-0.45,0.46,0.6,0.87
1.6234130859375,-0.47,0.7,0.63,1.05
1.633293867111206,-0.43,1.0,0.49,1.19
1.645413875579834,-0.3,1.26,0.26,1.32
1.6533570289611816,-0.12,1.48,0.09,1.48
1.66336989402771,-0.05,1.51,0.13,1.51
1.673637866973877,0.11,1.36,0.4,1.42
1.6945228576660156,0.13,1.11,0.8,1.37
1.6954050064086914,0.06,0.73,1.33,1.51
1.7038097381591797,-0.07,0.29,1.99,2.01
1.7137770652770996,-0.21,-0.08,2.78,2.78
1.724005937576294,-0.24,-0.27,3.32,3.33
1.7449250221252441,-0.21,0.1,3.32,3.32
1.7457270622253418,-0.2,1.29,2.91,3.18
1.7540559768676758,0.18,1.96,2.24,2.98
1.764124870300293,0.73,1.71,1.63,2.47
1.7742400169372559,0.68,1.22,1.69,2.19
1.7952549457550049,0.46,0.57,2.5,2.6
1.7960968017578125,0.57,-0.56,3.51,3.59
1.8043618202209473,0.5,-1.67,4.58,4.9
1.814471960067749,0.39,-2.37,5.44,5.94
1.8245849609375,0.59,-2.88,5.56,6.28
1.845012903213501,0.81,-2.96,4.77,5.67
1.845850944519043,1.03,-2.59,3.44,4.42
1.8546688556671143,1.3,-2.21,2.04,3.27
1.8648347854614258,1.23,-1.95,0.91,2.47
1.8748769760131836,1.1,-1.87,0.19,2.17
1.8953039646148682,1.01,-1.81,-0.02,2.07
1.8961677551269531,1.0,-1.96,0.04,2.2
1.9049489498138428,0.82,-2.26,0.21,2.41
1.9151520729064941,0.67,-2.5,0.45,2.62
1.9253599643707275,0.59,-2.59,0.64,2.73
1.944976806640625,0.5,-2.52,0.66,2.65
1.9458038806915283,0.39,-2.51,0.36,2.56
1.9553828239440918,0.22,-2.44,-0.21,2.45
1.965527057647705,0.1,-2.34,-0.84,2.48
1.9756419658660889,-0.12,-2.19,-1.34,2.57
1.9950108528137207,-0.28,-2.06,-1.81,2.75
1.9958438873291016,-0.36,-1.8,-2.19,2.85
2.005815029144287,-0.44,-1.53,-2.46,2.93
2.0158138275146484,-0.48,-1.25,-2.68,2.99
2.026021957397461,-0.56,-0.98,-2.82,3.03
2.0453100204467773,-0.51,-0.77,-2.79,2.93
2.0461487770080566,-0.23,-0.73,-2.7,2.8
2.0561957359313965,-0.03,-0.83,-2.57,2.7
2.0661678314208984,0.1,-1.04,-2.22,2.45
2.0763378143310547,0.2,-1.21,-1.65,2.05
2.0953938961029053,0.21,-1.35,-1.2,1.81
2.096284866333008,0.17,-1.39,-0.99,1.71
2.106510877609253,0.06,-1.3,-1.0,1.64
2.116455078125,-0.01,-1.06,-1.22,1.61
2.126685857772827,-0.04,-0.78,-1.62,1.79
2.1456079483032227,-0.1,-0.6,-2.01,2.1
2.1464648246765137,-0.07,-0.5,-2.16,2.21
2.1568498611450195,0.1,-0.48,-2.05,2.1
2.1667847633361816,0.33,-0.54,-1.65,1.76
2.1769537925720215,0.5,-0.77,-0.95,1.32
2.19586181640625,0.51,-1.0,-0.16,1.13
2.196962833404541,0.5,-1.02,0.37,1.19
2.206979751586914,0.4,-0.83,0.53,1.06
2.217766761779785,0.22,-0.55,0.3,0.66
2.2272069454193115,0.11,-0.34,-0.09,0.36
2.245508909225464,0.1,-0.21,-0.39,0.45
2.247060775756836,0.18,-0.29,-0.49,0.59
2.257472038269043,0.33,-0.57,-0.1,0.66
2.2677059173583984,0.49,-0.62,0.76,1.09
2.2775919437408447,0.63,-0.46,1.82,1.98
2.295837879180908,0.67,-0.19,2.83,2.91
2.2974278926849365,0.59,-0.01,3.51,3.55
2.3077950477600098,0.37,0.09,3.74,3.75
2.317697048187256,-0.1,0.09,3.77,3.77
2.3279218673706055,-0.31,-0.1,3.49,3.5
2.3457179069519043,-0.58,-0.33,3.3,3.36
2.347923755645752,-0.68,-0.61,3.24,3.36
2.358074903488159,-0.63,-0.79,3.35,3.49
2.3680148124694824,-0.59,-1.01,3.33,3.52
2.378236770629883,-0.67,-1.21,2.99,3.29
2.396411895751953,-0.79,-1.46,2.52,3.01
2.398216962814331,-0.81,-1.53,2.11,2.72
2.40846586227417,-0.65,-1.48,1.65,2.3
2.4184069633483887,-0.43,-1.35,1.13,1.81
2.428523063659668,-0.28,-1.21,0.62,1.38
2.445535898208618,-0.22,-1.16,0.32,1.22
2.4485559463500977,-0.1,-1.25,0.17,1.26
2.458782911300659,0.0,-1.52,0.02,1.52
2.468620777130127,-0.01,-1.71,-0.08,1.71
2.47879695892334,0.05,-1.8,-0.22,1.81
2.4951367378234863,0.1,-1.72,-0.48,1.78
2.4988279342651367,0.19,-1.6,-0.93,1.86
2.509129047393799,0.21,-1.46,-1.58,2.16
2.519033908843994,0.16,-1.25,-2.15,2.49
2.529258966445923,0.24,-1.24,-2.43,2.73
2.5461950302124023,0.34,-1.21,-2.28,2.6
2.549053907394409,0.34,-1.2,-1.65,2.06
2.5595030784606934,0.34,-1.27,-0.88,1.58
2.5694479942321777,0.36,-1.23,-0.32,1.32
2.5796990394592285,0.29,-1.33,-0.06,1.36
2.595571994781494,0.23,-1.39,-0.03,1.4
2.599557876586914,0.18,-1.44,-0.09,1.45
2.6098239421844482,0.17,-1.59,-0.16,1.6
2.6198248863220215,0.02,-1.63,-0.04,1.63
2.6297807693481445,-0.13,-1.66,0.24,1.68
2.6456589698791504,-0.22,-1.64,0.52,1.73
2.6498379707336426,-0.32,-1.53,0.74,1.72
2.660122871398926,-0.37,-1.42,0.71,1.63
2.6702070236206055,-0.34,-1.27,0.43,1.38
2.6802308559417725,-0.19,-1.1,0.03,1.11
2.695612907409668,-0.05,-1.0,-0.25,1.03
2.7001609802246094,0.06,-0.94,-0.32,0.99
2.710430860519409,0.15,-0.87,-0.21,0.9
2.720381736755371,0.12,-0.84,0.0,0.84
2.7305078506469727,0.09,-0.79,0.21,0.82
2.7455568313598633,-0.04,-0.73,0.33,0.8
2.751034736633301,-0.21,-0.58,0.37,0.71
2.7609128952026367,-0.27,-0.27,0.27,0.46
2.7708709239959717,-0.25,-0.08,0.06,0.26
2.7808127403259277,-0.25,-0.01,-0.14,0.28
2.7956058979034424,-0.26,-0.09,-0.29,0.39
2.8010377883911133,-0.33,-0.28,-0.3,0.52
2.8110709190368652,-0.33,-0.51,0.0,0.6
2.821096897125244,-0.25,-0.75,0.45,0.9
2.8311257362365723,-0.2,-0.97,0.8,1.27
2.8459699153900146,-0.15,-1.18,0.98,1.54
2.8512468338012695,-0.17,-1.31,0.95,1.62
2.861435890197754,-0.21,-1.34,0.78,1.56
2.8715028762817383,-0.23,-1.3,0.57,1.43
2.8814878463745117,-0.31,-1.2,0.42,1.3
2.895869731903076,-0.32,-1.12,0.29,1.2
2.90150785446167,-0.27,-1.0,0.13,1.04
2.9117178916931152,-0.15,-0.9,-0.12,0.92
2.921851873397827,-0.09,-0.75,-0.42,0.86
2.9318158626556396,-0.11,-0.59,-0.53,0.8
2.9465508460998535,-0.05,-0.52,-0.47,0.7
2.9519028663635254,0.09,-0.49,-0.35,0.6
2.9620718955993652,0.07,-0.45,-0.13,0.47
2.972132921218872,0.04,-0.35,0.09,0.36
2.982219934463501,0.09,-0.28,0.17,0.33
2.997006893157959,0.14,-0.29,0.18,0.36
3.00236177444458,0.24,-0.38,0.22,0.5
3.0123698711395264,0.34,-0.5,0.21,0.64
3.0225539207458496,0.37,-0.69,0.3,0.83
3.0324959754943848,0.46,-0.83,0.45,1.05
3.0470199584960938,0.48,-0.87,0.63,1.17
3.052560806274414,0.43,-0.83,0.81,1.23
3.0626220703125,0.33,-0.65,0.84,1.11
3.0727388858795166,0.2,-0.48,0.55,0.75
3.0828170776367188,0.04,-0.34,0.06,0.34
3.097871780395508,-0.03,-0.28,-0.33,0.43
3.1029300689697266,-0.05,-0.3,-0.51,0.59
3.1129260063171387,-0.04,-0.33,-0.49,0.59
3.1230177879333496,0.1,-0.38,-0.39,0.55
3.133100986480713,0.22,-0.46,-0.26,0.57
3.1480278968811035,0.18,-0.54,-0.12,0.58
3.1531147956848145,0.11,-0.53,0.03,0.54
3.1634230613708496,0.05,-0.49,0.11,0.5
3.173412799835205,0.0,-0.44,0.11,0.45
3.183444023132324,0.0,-0.37,0.15,0.39
3.1981730461120605,0.04,-0.3,0.28,0.41
3.2036757469177246,0.11,-0.22,0.38,0.45
3.2136998176574707,0.21,-0.15,0.32,0.41
3.2237749099731445,0.27,-0.11,0.2,0.35
3.234452962875366,0.27,-0.06,0.16,0.31
3.244049072265625,0.25,-0.02,0.17,0.3
3.265522003173828,0.19,0.01,0.23,0.29
3.2664248943328857,0.12,0.04,0.27,0.29
3.273982048034668,0.03,0.0,0.23,0.23
3.2845420837402344,-0.03,-0.04,0.13,0.13
3.2943220138549805,-0.09,-0.1,0.07,0.15
3.312894821166992,-0.08,-0.11,0.07,0.15
3.3141350746154785,0.04,-0.05,0.03,0.07
3.3244469165802,0.17,-0.04,-0.07,0.18
3.334561824798584,0.21,-0.07,-0.11,0.24
3.344658851623535,0.15,-0.12,-0.06,0.2
3.362743854522705,0.06,-0.12,0.04,0.13
3.3644227981567383,-0.04,-0.13,0.13,0.18
3.374675750732422,-0.09,-0.11,0.17,0.22
3.384575843811035,-0.11,-0.12,0.18,0.24
3.3947410583496094,-0.08,-0.12,0.14,0.2
3.411524772644043,0.04,-0.08,0.07,0.11
3.4148950576782227,0.14,-0.05,0.03,0.15
3.4248509407043457,0.19,-0.03,0.03,0.19
3.434875965118408,0.08,-0.01,0.08,0.11
3.4450459480285645,-0.01,0.01,0.13,0.13
3.4618797302246094,-0.02,0.0,0.14,0.14
3.46511173248291,-0.05,-0.03,0.11,0.12
3.475339889526367,-0.03,-0.02,0.08,0.08
3.485247850418091,0.03,0.02,0.06,0.06
3.4954938888549805,0.03,-0.01,0.02,0.03
3.511539936065674,0.01,-0.08,-0.02,0.08
3.5154879093170166,-0.01,-0.12,-0.05,0.13
3.5256190299987793,0.01,-0.12,-0.04,0.12
3.5355887413024902,0.03,-0.05,-0.02,0.06
3.5458498001098633,0.04,0.06,0.0,0.07
3.5620570182800293,0.0,0.1,-0.04,0.1
3.5658578872680664,-0.03,0.14,-0.07,0.15
3.575953960418701,-0.02,0.15,-0.15,0.21
3.5858330726623535,0.01,0.09,-0.21,0.22
3.596137046813965,0.05,0.02,-0.12,0.13
3.611937999725342,0.06,-0.04,0.1,0.12
3.616147994995117,0.06,-0.07,0.26,0.27
3.6263017654418945,0.03,-0.05,0.31,0.31
3.636202812194824,-0.02,-0.06,0.29,0.29
3.6465420722961426,-0.05,-0.04,0.27,0.27
3.6619839668273926,-0.06,-0.03,0.24,0.24
3.666393756866455,-0.06,-0.01,0.17,0.18
3.6766457557678223,-0.09,0.01,0.07,0.11
3.686647891998291,-0.07,0.08,-0.07,0.12
3.696861743927002,-0.06,0.15,-0.25,0.29
3.7124528884887695,-0.06,0.18,-0.36,0.4
3.716859817504883,-0.09,0.13,-0.28,0.32
3.726925849914551,-0.15,0.03,-0.06,0.16
3.7371859550476074,-0.21,-0.05,0.21,0.3
3.747131824493408,-0.27,-0.13,0.35,0.46
3.7625439167022705,-0.29,-0.16,0.39,0.51
3.767652988433838,-0.21,-0.14,0.36,0.43
3.777190923690796,-0.18,-0.12,0.23,0.31
3.7873997688293457,-0.17,-0.02,0.08,0.18
3.797402858734131,-0.14,0.07,-0.06,0.16
3.8123528957366943,-0.13,0.14,-0.18,0.26
3.817751884460449,-0.14,0.17,-0.25,0.33
3.8276379108428955,-0.17,0.19,-0.18,0.31
3.8375818729400635,-0.17,0.15,-0.1,0.24
3.847801923751831,-0.14,0.04,-0.02,0.14
3.862441062927246,-0.15,-0.07,0.14,0.21
3.867711067199707,-0.15,-0.18,0.29,0.37
3.8779098987579346,-0.12,-0.22,0.42,0.48
3.888037919998169,-0.1,-0.22,0.51,0.56
3.8980488777160645,-0.07,-0.17,0.48,0.51
3.911864757537842,-0.05,-0.09,0.29,0.3
3.9180307388305664,0.01,-0.01,0.06,0.06
3.928248882293701,0.01,0.04,-0.15,0.15
3.938429832458496,0.05,0.08,-0.25,0.26
3.9484148025512695,0.05,0.1,-0.22,0.24
3.962197780609131,0.0,0.11,-0.11,0.15
3.9683499336242676,-0.05,0.1,-0.01,0.11
3.9785728454589844,-0.04,0.03,0.0,0.05
3.9887847900390625,-0.03,-0.01,-0.06,0.06
3.998746871948242,-0.02,-0.06,0.0,0.06
4.011682033538818,-0.01,-0.07,0.19,0.2
4.016207933425903,-0.02,-0.13,0.34,0.36
4.026494026184082,-0.1,-0.19,0.38,0.43
4.036252975463867,-0.19,-0.21,0.31,0.41
4.046496868133545,-0.19,-0.15,0.16,0.29
4.061131000518799,-0.14,-0.04,-0.04,0.15
4.066622734069824,-0.12,0.03,-0.16,0.2
4.0770440101623535,-0.1,0.06,-0.15,0.19
4.086781024932861,-0.04,0.03,-0.08,0.09
4.0969078540802,-0.01,0.02,-0.07,0.07
4.116111755371094,0.02,0.02,-0.14,0.14
4.117822885513306,0.04,0.02,-0.17,0.17
4.127339839935303,0.06,0.05,-0.13,0.15
4.1373679637908936,0.03,0.06,-0.04,0.07
4.147160053253174,0.01,0.03,0.05,0.05
4.162068843841553,0.01,-0.05,0.16,0.16
4.167573928833008,0.0,-0.1,0.32,0.33
4.177495956420898,-0.02,-0.15,0.47,0.49
4.187576770782471,-0.05,-0.16,0.51,0.53
4.197539806365967,-0.09,-0.11,0.38,0.4
4.21193790435791,-0.09,-0.06,0.17,0.2
4.217586994171143,-0.07,-0.02,-0.03,0.07
4.2278337478637695,-0.02,0.02,-0.13,0.13
4.237721920013428,0.01,0.04,-0.12,0.12
4.2478649616241455,0.0,0.07,-0.02,0.07
4.262125015258789,0.01,0.07,0.01,0.07
4.267863750457764,-0.03,0.08,-0.06,0.1
4.278092861175537,-0.07,0.06,-0.15,0.17
4.288067817687988,-0.08,0.03,-0.15,0.17
4.298189878463745,-0.06,0.01,0.0,0.06
4.312265872955322,-0.02,0.01,0.15,0.15
4.318124771118164,0.0,-0.01,0.2,0.2
4.328417778015137,0.03,0.02,0.19,0.19
4.338371753692627,0.01,0.01,0.09,0.09
4.348428964614868,-0.01,0.02,-0.03,0.03
4.36285400390625,-0.02,0.09,-0.02,0.09
4.369922876358032,-0.06,0.08,0.07,0.12
4.379933834075928,-0.08,0.09,0.17,0.2
4.38992977142334,-0.08,0.09,0.2,0.23
4.400015830993652,-0.07,0.09,0.19,0.22
4.414309978485107,-0.06,0.07,0.19,0.21
4.420228958129883,-0.09,0.03,0.2,0.22
4.4302918910980225,-0.04,-0.01,0.17,0.17
4.440396785736084,0.01,-0.01,0.14,0.14
4.462687969207764,0.05,-0.04,0.09,0.11
4.463608741760254,0.12,0.0,0.02,0.12
4.470445871353149,0.14,0.01,-0.01,0.14
4.480498790740967,0.09,0.03,-0.02,0.09
4.490716934204102,0.09,0.04,-0.04,0.1
4.513092994689941,0.11,0.03,-0.06,0.12
4.513902902603149,0.11,0.07,-0.03,0.13
4.520874977111816,0.11,0.11,0.01,0.15
4.5309898853302,0.05,0.13,0.08,0.16
4.5410237312316895,-0.03,0.06,0.16,0.17
4.563241958618164,-0.09,0.0,0.24,0.25
4.564028739929199,-0.09,-0.04,0.28,0.29
4.571180820465088,-0.07,-0.03,0.27,0.28
4.581173896789551,-0.06,0.04,0.24,0.25
4.59143590927124,-0.07,0.07,0.14,0.17
4.612614870071411,-0.02,0.12,-0.01,0.12
4.61344575881958,0.0,0.11,-0.17,0.2
4.62158203125,0.05,0.12,-0.32,0.34
4.631532907485962,0.09,0.12,-0.37,0.39
4.641883850097656,0.12,0.08,-0.22,0.26
4.662214756011963,0.11,0.02,0.0,0.11
4.663013935089111,0.11,-0.04,0.14,0.18
4.671856880187988,0.09,-0.08,0.2,0.23
4.681828022003174,0.05,-0.08,0.19,0.21
4.692032814025879,0.01,-0.08,0.16,0.17
4.712319850921631,-0.06,-0.08,0.13,0.16
4.713137865066528,-0.07,-0.1,0.09,0.15
4.722219944000244,-0.04,-0.09,0.0,0.09
4.732163906097412,0.04,-0.08,-0.08,0.12
4.74250602722168,0.14,-0.03,-0.1,0.17
4.763228893280029,0.18,0.01,-0.1,0.2
4.764033794403076,0.17,0.03,-0.09,0.19
4.7725300788879395,0.12,0.03,-0.06,0.13
4.782577037811279,0.03,0.03,0.03,0.05
4.792798042297363,0.0,0.04,0.12,0.12
4.8132829666137695,-0.03,0.05,0.17,0.17
4.814129829406738,-0.05,0.04,0.18,0.19
4.8228440284729,-0.02,0.08,0.19,0.2
4.832798004150391,0.06,0.12,0.08,0.15
4.843020915985107,0.08,0.13,-0.05,0.16
4.86340594291687,0.14,0.18,-0.11,0.25
4.864247798919678,0.17,0.21,-0.16,0.31
4.873185873031616,0.14,0.22,-0.23,0.34
4.88319993019104,0.14,0.23,-0.26,0.37
4.893410921096802,0.11,0.21,-0.23,0.33
4.9121928215026855,0.04,0.18,-0.15,0.23
4.913275957107544,0.04,0.18,-0.06,0.19
4.923497915267944,0.05,0.18,0.03,0.18
4.934017896652222,0.05,0.2,0.04,0.21
4.943841934204102,0.08,0.28,-0.04,0.29
4.963533878326416,0.13,0.35,-0.17,0.41
4.964376926422119,0.14,0.36,-0.33,0.5
4.973794937133789,0.14,0.39,-0.46,0.61
4.984123945236206,0.07,0.35,-0.5,0.61
4.994134902954102,0.01,0.33,-0.4,0.51
5.012157917022705,-0.03,0.33,-0.34,0.47
5.013889789581299,-0.03,0.31,-0.32,0.44
5.0242438316345215,-0.07,0.24,-0.35,0.43
5.0342488288879395,-0.13,0.18,-0.39,0.44
5.044484853744507,-0.08,0.06,-0.53,0.53
5.062716007232666,0.0,-0.03,-0.71,0.71
5.064204931259155,-0.01,-0.01,-0.78,0.78
5.074466943740845,-0.09,0.05,-0.77,0.77
5.084589958190918,-0.22,0.12,-0.78,0.81
5.094727993011475,-0.38,0.19,-0.75,0.86
5.113247871398926,-0.5,0.24,-0.75,0.93
5.114539861679077,-0.51,0.31,-0.75,0.95
5.124783992767334,-0.42,0.43,-0.71,0.93
5.134799003601074,-0.3,0.57,-0.57,0.86
5.145074844360352,-0.25,0.65,-0.26,0.74
5.163218021392822,-0.15,0.74,0.03,0.75
5.164933919906616,-0.02,0.87,0.19,0.89
5.1751708984375,0.02,0.99,0.35,1.05
5.18513298034668,0.01,1.08,0.49,1.18
5.195384979248047,-0.03,1.17,0.56,1.29
5.213222980499268,-0.13,1.29,0.57,1.41
5.215385913848877,-0.24,1.38,0.51,1.49
5.225493907928467,-0.35,1.48,0.34,1.55
5.2354419231414795,-0.53,1.58,0.18,1.67
5.245550870895386,-0.72,1.61,0.18,1.77
5.263278007507324,-0.73,1.59,0.37,1.78
5.265558958053589,-0.69,1.54,0.7,1.82
5.2758097648620605,-0.56,1.48,0.9,1.82
5.285899877548218,-0.31,1.4,0.85,1.66
5.296009063720703,0.02,1.38,0.64,1.52
5.312999963760376,0.22,1.39,0.29,1.43
5.315861940383911,0.3,1.4,-0.14,1.43
5.326133966445923,0.31,1.41,-0.56,1.54
5.336150884628296,0.26,1.41,-1.01,1.75
5.3462748527526855,0.18,1.41,-1.33,1.94
5.363000869750977,0.06,1.41,-1.36,1.95
5.366291046142578,-0.09,1.4,-1.29,1.9
5.376469850540161,-0.21,1.38,-1.16,1.81
5.3864240646362305,-0.33,1.38,-0.99,1.73
5.396585941314697,-0.39,1.37,-0.84,1.65
5.413174867630005,-0.35,1.4,-0.71,1.6
5.416586875915527,-0.35,1.4,-0.54,1.54
5.426918983459473,-0.31,1.35,-0.37,1.43
5.436874866485596,-0.24,1.33,-0.2,1.36
5.446981906890869,-0.25,1.28,-0.05,1.3
5.463590860366821,-0.28,1.27,0.06,1.3
5.467495918273926,-0.31,1.36,0.09,1.39
5.477069854736328,-0.35,1.47,-0.03,1.51
5.4873127937316895,-0.33,1.62,-0.23,1.66
5.497309923171997,-0.3,1.8,-0.41,1.87
5.513128757476807,-0.27,1.9,-0.53,1.99
5.5176167488098145,-0.19,1.94,-0.52,2.01
5.52743673324585,-0.06,1.92,-0.32,1.94
5.537589073181152,-0.02,1.87,-0.03,1.87
5.547600746154785,0.0,1.8,0.24,1.81
5.563042879104614,0.0,1.77,0.45,1.82
5.567543029785156,-0.04,1.77,0.54,1.85
5.577785015106201,-0.02,1.81,0.53,1.88
5.587886810302734,0.0,1.91,0.45,1.96
5.597985744476318,-0.08,2.01,0.46,2.06
5.613289833068848,-0.13,2.09,0.56,2.16
5.617863893508911,-0.17,2.06,0.73,2.19
5.628045082092285,-0.25,1.92,0.98,2.17
5.638289928436279,-0.27,1.71,1.25,2.13
5.648293972015381,-0.29,1.66,1.52,2.26
5.662386894226074,-0.33,2.05,1.71,2.68
5.668272972106934,-0.27,2.51,1.75,3.07
5.678462028503418,-0.22,2.63,1.59,3.08
5.688583850860596,-0.34,2.26,1.36,2.65
5.698617935180664,-0.51,1.6,1.48,2.23
5.713449001312256,-0.52,1.08,1.99,2.32
5.718570947647095,-0.35,0.83,2.54,2.69
5.728759765625,-0.27,0.46,2.82,2.86
5.73881196975708,-0.36,0.2,2.69,2.72
5.748929977416992,-0.45,0.04,2.13,2.17
5.763238906860352,-0.56,-0.06,1.45,1.55
5.769035816192627,-0.55,-0.17,0.94,1.1
5.779070854187012,-0.38,-0.25,0.63,0.77
5.789168834686279,-0.01,-0.29,0.64,0.7
5.799280881881714,0.28,-0.27,1.0,1.07
5.813861846923828,0.45,-0.39,1.44,1.55
5.8194050788879395,0.73,-0.63,1.62,1.88
5.8294358253479,1.03,-0.94,1.44,2.0
5.839451789855957,1.16,-1.16,0.95,1.89
5.84947395324707,1.23,-1.21,0.19,1.73
5.863731861114502,1.31,-1.2,-0.65,1.89
5.869571924209595,1.35,-1.26,-1.37,2.29
5.879703044891357,1.3,-1.21,-1.87,2.57
5.889802932739258,1.27,-1.09,-2.14,2.71
5.8998517990112305,1.25,-0.81,-2.17,2.63
5.914188861846924,1.24,-0.5,-2.05,2.44
5.91986083984375,1.24,-0.24,-1.85,2.24
5.93000602722168,1.16,-0.04,-1.65,2.01
5.940217018127441,1.0,0.04,-1.48,1.78
5.950932025909424,0.8,-0.1,-1.36,1.58
5.960394859313965,0.54,-0.26,-1.15,1.29
5.980675935745239,0.29,-0.42,-0.8,0.94
5.9814958572387695,0.0,-0.61,-0.35,0.7
5.990463733673096,-0.23,-0.76,0.07,0.79
6.0010669231414795,-0.46,-0.77,0.32,0.95
6.010696887969971,-0.62,-0.71,0.23,0.97
6.0297770500183105,-0.72,-0.58,-0.16,0.93
6.030633926391602,-0.79,-0.43,-0.71,1.14
6.040836811065674,-0.83,-0.24,-1.25,1.51
6.050853729248047,-0.81,-0.06,-1.67,1.85
6.0609660148620605,-0.67,0.14,-1.97,2.08
6.079256057739258,-0.5,0.41,-2.17,2.26
6.080846786499023,-0.28,0.57,-2.36,2.44
6.0911688804626465,-0.12,0.75,-2.5,2.61
6.100975036621094,0.0,0.9,-2.56,2.71
6.11127495765686,0.11,1.02,-2.51,2.71
6.128947734832764,0.18,1.11,-2.39,2.64
6.131224870681763,0.23,1.16,-2.12,2.42
6.1414690017700195,0.3,1.17,-1.7,2.08
6.151397943496704,0.33,1.14,-1.17,1.66
6.161508083343506,0.38,1.09,-0.61,1.3
6.179553031921387,0.41,1.11,-0.23,1.2
6.181573867797852,0.41,1.13,-0.06,1.2
6.191774845123291,0.46,1.2,0.0,1.28
6.201666831970215,0.53,1.29,0.03,1.39
6.211727857589722,0.53,1.38,0.06,1.47
6.229468822479248,0.52,1.48,0.13,1.57
6.231872081756592,0.42,1.54,0.23,1.61
6.242127895355225,0.26,1.53,0.4,1.6
6.2520527839660645,0.06,1.43,0.71,1.59
6.262160778045654,-0.14,1.28,1.15,1.72
6.279103755950928,-0.27,1.07,1.71,2.03
6.2821879386901855,-0.28,0.8,2.28,2.43
6.292430877685547,-0.19,0.53,2.77,2.82
6.302423000335693,-0.1,0.33,3.02,3.03
6.3125128746032715,-0.13,0.3,2.9,2.91
6.329190731048584,-0.26,1.05,2.54,2.76
6.332499980926514,-0.19,2.38,2.0,3.11
6.342813968658447,-0.37,2.94,1.49,3.31
6.352687835693359,-0.69,2.63,1.33,3.02
6.362844944000244,-0.78,2.26,1.6,2.87
6.379347801208496,-0.64,1.77,2.03,2.76
6.382844924926758,-0.34,0.73,2.82,2.93
6.393128871917725,0.02,-0.41,4.03,4.05
6.402972936630249,0.31,-1.54,5.17,5.4
6.413111925125122,0.27,-2.31,5.58,6.04
6.429274082183838,0.36,-2.6,5.08,5.71
6.4332990646362305,0.23,-2.25,3.37,4.05
6.443420886993408,-0.12,-1.67,0.99,1.94
6.453434944152832,-0.31,-1.25,-1.11,1.7
6.463491916656494,-0.57,-0.95,-2.42,2.66
6.479389905929565,-0.82,-0.89,-2.76,3.01
6.484230995178223,-0.93,-0.91,-2.27,2.61
6.49368691444397,-0.88,-0.98,-1.38,1.9
6.503842830657959,-0.7,-1.06,-0.67,1.43
6.513872861862183,-0.38,-0.93,-0.14,1.01
6.529623031616211,-0.48,-1.05,0.11,1.15
6.53445291519165,-0.42,-1.14,0.22,1.23
6.544019937515259,-0.39,-1.18,0.1,1.24
6.5540759563446045,-0.35,-1.21,-0.31,1.29
6.564176082611084,-0.31,-1.22,-0.81,1.49
6.579025745391846,-0.31,-1.15,-1.27,1.74
6.5842437744140625,-0.27,-1.02,-1.73,2.02
6.594449043273926,-0.23,-0.82,-2.13,2.29
6.604336738586426,-0.18,-0.59,-2.51,2.58
6.614508867263794,-0.1,-0.41,-3.01,3.03
6.629169940948486,-0.05,-0.31,-3.51,3.52
6.63456392288208,0.01,-0.23,-3.74,3.74
6.644652843475342,0.09,-0.08,-3.58,3.58
6.654767990112305,0.17,0.06,-3.18,3.18
6.664870738983154,0.21,0.1,-2.74,2.74
6.679004907608032,0.18,0.18,-2.32,2.33
6.6848978996276855,0.13,0.16,-2.05,2.06
6.694968938827515,0.04,0.18,-1.86,1.86
6.705111980438232,-0.07,0.12,-1.63,1.63
6.715147018432617,-0.24,0.03,-1.37,1.39
6.729163885116577,-0.38,0.01,-1.09,1.15
6.735221862792969,-0.43,0.06,-0.82,0.92
6.745339870452881,-0.48,0.2,-0.49,0.71
6.755417823791504,-0.52,0.38,-0.16,0.66
6.765527963638306,-0.51,0.58,0.05,0.77
6.7795679569244385,-0.47,0.79,0.25,0.95
6.785511016845703,-0.49,0.89,0.34,1.07
6.795766830444336,-0.39,0.94,0.33,1.06
6.8057639598846436,-0.29,0.98,0.29,1.06
6.815896034240723,-0.18,1.02,0.24,1.06
6.829674959182739,-0.06,1.08,0.25,1.11
6.835896968841553,-0.05,1.08,0.38,1.14
6.845956802368164,-0.1,0.99,0.62,1.17
6.856116771697998,-0.24,0.83,0.96,1.29
6.866174936294556,-0.35,0.62,1.41,1.57
6.879245758056641,-0.31,0.45,1.87,1.94
6.886295795440674,-0.31,0.39,2.37,2.42
6.896345853805542,-0.26,0.99,2.84,3.01
6.906424045562744,0.17,1.67,2.9,3.35
6.916548728942871,0.52,1.79,2.65,3.23
6.930651903152466,0.36,1.64,2.3,2.84
6.936615943908691,0.0,1.52,1.89,2.42
6.946666955947876,-0.22,1.07,1.79,2.09
6.956820964813232,-0.05,0.45,2.06,2.1
6.979923963546753,-0.06,-0.26,2.48,2.49
6.9808478355407715,-0.11,-1.1,2.97,3.16
6.986926078796387,-0.06,-1.85,3.38,3.85
6.996926784515381,0.52,-2.07,3.89,4.43
7.007054805755615,0.74,-1.95,3.85,4.37
7.029543876647949,0.97,-1.85,2.92,3.59
7.030390739440918,0.92,-1.5,1.44,2.27
7.037428855895996,0.87,-1.16,-0.22,1.46
7.047363758087158,0.94,-0.8,-1.51,1.95
7.057436943054199,0.97,-0.55,-2.16,2.43
7.080188751220703,0.93,-0.47,-2.06,2.3
7.081057071685791,1.01,-0.44,-1.33,1.72
7.0876617431640625,1.02,-0.7,-0.39,1.29
7.097692012786865,0.84,-1.12,0.36,1.44
7.1077799797058105,0.58,-1.51,0.78,1.79
7.130507946014404,0.33,-1.73,0.88,1.96
7.1312949657440186,0.14,-1.73,0.63,1.84
7.1380720138549805,-0.13,-1.53,0.0,1.53
7.148014068603516,-0.3,-1.23,-0.8,1.49
7.158175945281982,-0.36,-0.89,-1.61,1.87
7.180271863937378,-0.37,-0.55,-2.31,2.4
7.181113958358765,-0.33,-0.29,-2.83,2.86
7.188292980194092,-0.22,-0.1,-3.07,3.07
7.198277950286865,-0.05,-0.02,-3.2,3.2
7.208436012268066,0.11,0.01,-3.27,3.27
7.230082035064697,0.19,0.05,-3.19,3.19
7.230916976928711,0.17,0.1,-3.07,3.07
7.23855185508728,0.14,0.17,-2.81,2.81
7.248589992523193,0.06,0.19,-2.56,2.56
7.25875997543335,0.03,0.18,-2.32,2.32
7.2794859409332275,0.05,0.14,-2.03,2.03
7.280205965042114,0.15,0.06,-1.81,1.81
7.28889799118042,0.34,0.06,-1.63,1.66
7.298951864242554,0.51,0.03,-1.4,1.49
7.3090739250183105,0.69,0.05,-1.07,1.27
7.329664945602417,0.87,0.16,-0.72,1.14
7.330493927001953,0.95,0.31,-0.32,1.04
7.3392579555511475,0.93,0.5,-0.02,1.05
7.349276065826416,0.86,0.68,0.09,1.1
7.359440803527832,0.74,0.85,0.02,1.12
7.379672050476074,0.65,1.05,-0.14,1.24
7.380386829376221,0.59,1.17,-0.29,1.34
7.3895978927612305,0.48,1.2,-0.39,1.35
7.399623870849609,0.32,1.27,-0.21,1.32
7.409786939620972,0.17,1.26,0.26,1.29
7.4294469356536865,0.1,1.18,0.71,1.38
7.430152893066406,-0.08,0.95,0.99,1.37
7.439974784851074,-0.1,0.55,1.37,1.47
7.449950933456421,-0.02,0.17,1.87,1.87
7.460089921951294,0.04,-0.06,2.26,2.26
7.480013847351074,0.01,0.08,2.44,2.44
7.480824947357178,-0.27,0.94,2.53,2.71
7.4902849197387695,-0.48,1.91,2.43,3.12
7.500864028930664,-0.61,2.64,1.81,3.25
7.510368824005127,-0.83,2.94,1.16,3.26
7.529533863067627,-1.14,2.82,1.34,3.32
7.530359745025635,-1.06,2.03,2.01,3.04
7.540524959564209,-0.09,0.86,2.73,2.86
7.550827980041504,1.7,-0.24,3.84,4.2
7.560728073120117,1.49,-0.67,5.4,5.64
7.580044746398926,1.17,-1.31,5.91,6.16
7.580749988555908,0.6,-1.33,4.87,5.08
7.590933799743652,-0.32,-1.16,3.33,3.54
7.6008429527282715,-0.79,-0.79,1.37,1.76
7.611079931259155,-1.11,-0.09,-0.65,1.28
7.630084037780762,-1.35,0.08,-2.21,2.59
7.631044864654541,-1.59,0.13,-2.97,3.37
7.641190052032471,-1.34,0.0,-3.08,3.35
7.651166915893555,-0.72,-0.07,-2.74,2.83
7.661287784576416,-0.71,0.19,-2.03,2.15
7.679550886154175,-0.53,-0.09,-1.31,1.41
7.681228876113892,-0.77,-0.12,-0.89,1.18
7.6914238929748535,-0.62,-0.09,-0.71,0.94
7.701488971710205,-0.2,-0.06,-0.95,0.97
7.711620807647705,0.22,0.1,-1.31,1.33
7.729528903961182,0.45,0.25,-1.58,1.66
7.731928825378418,0.47,0.29,-1.84,1.92
7.741925954818726,0.03,0.32,-2.13,2.15
7.751769065856934,-0.53,0.3,-2.6,2.67
7.761915922164917,-0.9,0.42,-3.22,3.36
7.779833793640137,-0.88,0.6,-3.67,3.82
7.782044887542725,-0.57,0.75,-3.85,3.96
7.792242050170898,-0.13,1.0,-3.7,3.83
7.80218505859375,0.32,1.15,-3.31,3.51
7.812311887741089,0.07,1.26,-2.76,3.03
7.830335855484009,-0.24,0.94,-2.28,2.47
7.832216739654541,-0.47,0.89,-1.98,2.22
7.842517852783203,-0.39,1.09,-2.03,2.33
7.852468967437744,-0.21,1.38,-2.26,2.65
7.862578868865967,0.13,1.72,-2.59,3.11
7.879917860031128,0.49,2.18,-2.91,3.66
7.882589817047119,0.7,2.39,-2.97,3.87
7.892835855484009,0.7,2.31,-2.74,3.65
7.902801036834717,0.44,2.04,-2.25,3.06
7.912975788116455,0.16,1.69,-1.55,2.29
7.9298529624938965,-0.13,1.59,-0.92,1.84
7.932934761047363,-0.28,1.72,-0.64,1.85
7.943222999572754,-0.36,2.18,-0.54,2.27
7.953134059906006,-0.3,2.7,-0.53,2.76
7.963299751281738,-0.32,3.13,-0.74,3.23
7.979983806610107,-0.67,3.33,-0.89,3.51
7.983306884765625,-0.71,3.29,-1.04,3.52
7.9935338497161865,-0.42,3.27,-0.85,3.4
8.003495931625366,-0.13,3.1,-0.13,3.1
8.012282848358154,-0.21,2.81,1.04,3.0
8.028793811798096,-0.48,2.37,2.11,3.2
8.03236985206604,-0.71,2.15,2.61,3.45
8.042543888092041,-0.73,2.11,2.35,3.24
8.052599906921387,-0.5,2.13,1.76,2.8
8.062687873840332,-0.21,2.2,1.34,2.58
8.079603910446167,-0.08,2.19,1.28,2.53
8.082635879516602,-0.03,2.06,1.61,2.61
8.092951774597168,-0.2,2.04,2.05,2.89
8.102777004241943,-0.65,1.96,2.06,2.91
8.113049983978271,-0.88,2.14,1.25,2.62
8.130131959915161,-0.42,2.34,0.07,2.37
8.133035898208618,0.22,2.44,-0.62,2.52
8.14317798614502,0.51,2.56,-0.67,2.69
8.153137922286987,0.71,2.31,-0.59,2.48
8.16335678100586,0.72,1.91,-0.35,2.07
8.179391860961914,1.06,1.19,0.02,1.59
8.183359861373901,1.57,0.25,0.47,1.65
8.19343376159668,1.54,-0.82,0.79,1.91
8.203765869140625,1.2,-1.52,0.81,2.09
8.213718891143799,0.85,-1.98,0.41,2.19
8.230175971984863,0.98,-2.18,-0.14,2.39
8.234109878540039,1.75,-2.03,-0.08,2.68
8.243971824645996,2.05,-1.69,0.88,2.79
8.254039764404297,1.33,-1.51,2.41,3.13
8.264010906219482,0.29,-1.43,3.69,3.96
8.280510902404785,-0.46,-1.25,3.98,4.19
8.284117937088013,-0.92,-0.73,3.4,3.59
8.294294834136963,-1.06,0.18,2.61,2.82
8.304429054260254,-1.08,1.13,1.98,2.52
8.31449294090271,-1.01,2.03,1.57,2.75
8.330168962478638,-0.98,2.75,1.24,3.17
8.334197998046875,-0.83,3.11,0.84,3.32
8.344371795654297,-0.91,3.22,0.95,3.47
8.354526042938232,-1.15,3.05,1.7,3.67
8.365921974182129,-1.38,2.73,2.92,4.22
8.38221788406372,-1.44,2.7,3.99,5.02
8.386165857315063,-1.04,2.75,4.59,5.45
8.396106958389282,-0.44,2.85,4.48,5.32
8.406213760375977,0.35,3.29,3.85,5.07
8.416318893432617,1.18,3.79,2.75,4.82
8.432432889938354,1.84,4.29,1.44,4.88
8.436288833618164,2.18,4.72,0.39,5.21
8.446424007415771,2.17,4.58,-0.35,5.08
8.4564790725708,1.68,4.14,-0.92,4.56
8.466534852981567,1.01,3.43,-1.52,3.88
8.481651782989502,0.39,2.73,-2.1,3.46
8.486608982086182,0.1,1.97,-2.66,3.31
8.496726036071777,0.13,1.32,-3.19,3.45
8.506869792938232,0.1,0.87,-3.75,3.85
8.517557859420776,-0.33,0.52,-4.28,4.32
8.527085781097412,-1.02,0.3,-4.89,5.0
8.548380851745605,-1.45,0.47,-5.54,5.74
8.54923677444458,-1.41,0.81,-5.9,6.11
8.55716586112976,-1.26,1.09,-5.63,5.87
8.567369937896729,-1.03,0.84,-4.93,5.1
8.57737398147583,-1.09,0.46,-4.05,4.21
8.596245765686035,-1.58,0.32,-3.28,3.65
8.59719705581665,-2.54,0.77,-2.83,3.87
8.607501029968262,-2.73,1.37,-2.57,3.99
8.617409944534302,-2.3,2.01,-2.14,3.72
8.627649784088135,-1.49,2.42,-1.62,3.27
8.645480871200562,-0.76,2.25,-0.97,2.56
8.647597789764404,0.23,1.93,0.1,1.94
8.657823085784912,0.83,1.59,1.58,2.39
8.667710781097412,0.3,1.04,3.33,3.5
8.677995920181274,-0.83,0.43,4.85,4.93
8.695589065551758,-1.75,0.18,6.03,6.28
8.697951793670654,-1.86,0.59,6.83,7.1
8.708098888397217,-1.28,1.13,6.89,7.09
8.718111038208008,-0.62,1.57,6.38,6.59
8.72826886177063,-0.3,2.19,5.88,6.28
8.746009826660156,-0.51,2.61,5.2,5.84
8.74834680557251,-1.1,2.69,4.35,5.23
8.758750915527344,-1.74,2.31,3.36,4.43
8.76845407485962,-2.4,1.7,2.26,3.7
8.778629779815674,-2.31,0.89,1.46,2.87
8.796175956726074,-1.51,-0.11,1.29,1.98
8.798703908920288,-0.59,-0.95,1.62,1.96
8.808795928955078,0.47,-1.6,2.05,2.64
8.818810939788818,1.48,-1.88,2.08,3.17
8.828866958618164,2.08,-1.88,1.38,3.12
8.845979928970337,1.99,-1.63,-0.27,2.58
8.848865985870361,1.61,-1.39,-2.48,3.26
8.859102964401245,1.08,-1.2,-4.56,4.83
8.869093894958496,0.69,-1.14,-5.94,6.08
8.879240036010742,0.51,-0.94,-6.05,6.14
8.89593505859375,0.41,-0.57,-4.96,5.0
8.899245738983154,0.37,-0.36,-3.55,3.58
8.909472942352295,0.66,-0.28,-2.75,2.84
8.919456958770752,1.23,-0.42,-2.84,3.12
8.929536819458008,1.98,-0.59,-3.34,3.92
8.945909976959229,2.35,-0.9,-3.52,4.32
8.949678897857666,2.09,-1.95,-2.86,4.04
8.959794998168945,1.38,-3.45,-1.45,3.98
8.969882011413574,0.17,-3.69,0.01,3.69
8.98002004623413,-0.99,-2.76,1.37,3.23
8.996182918548584,0.12,-2.43,1.53,2.87
8.999934911727905,1.84,-1.01,0.52,2.16
9.010110855102539,2.96,1.18,-0.9,3.31
9.020258903503418,2.87,2.51,-1.89,4.25
9.030176877975464,1.56,2.83,-1.74,3.67
9.046308994293213,0.1,2.16,0.04,2.16
9.050765037536621,-1.88,1.45,2.87,3.72
9.060506820678711,-3.11,0.89,5.54,6.41
9.070406913757324,-3.18,0.76,6.69,7.44
9.080752849578857,-3.38,1.55,5.79,6.88
9.097034931182861,-2.2,2.66,3.39,4.83
9.100968837738037,0.0,4.21,1.32,4.41
9.110765933990479,1.54,5.37,0.44,5.6
9.120841979980469,2.24,5.79,0.63,6.24
9.13088607788086,2.43,5.52,1.66,6.25
9.14650297164917,2.11,4.85,2.45,5.82
9.15087604522705,1.6,4.2,2.04,4.93
9.161120891571045,1.42,3.1,0.71,3.48
9.171095848083496,1.47,1.75,-0.97,2.48
9.18118691444397,1.16,0.79,-2.41,2.78
9.195655822753906,0.82,0.03,-3.52,3.61
9.201225757598877,0.59,-0.52,-4.44,4.5
9.211370944976807,0.52,-0.81,-5.34,5.42
9.22156286239624,1.08,-0.72,-6.56,6.68
9.231476783752441,1.93,-0.42,-7.91,8.15
9.245780944824219,2.36,-0.12,-8.64,8.95
9.251601934432983,2.14,0.31,-8.18,8.46
9.261738777160645,1.26,0.69,-6.92,7.06
9.271957874298096,0.61,0.67,-5.23,5.3
9.281879901885986,0.13,0.68,-3.38,3.45
9.296446800231934,-0.02,0.27,-1.8,1.82
9.301836967468262,-0.05,-0.47,-0.59,0.75
9.312088012695312,-0.19,-1.14,-0.08,1.15
9.322216987609863,-0.36,-1.6,-0.22,1.65
9.332144737243652,-0.74,-1.94,-0.77,2.21
9.346572875976562,-2.41,-2.09,-0.69,3.26
9.352186918258667,-5.83,-1.93,0.26,6.14
9.36247992515564,-8.41,-1.37,1.93,8.73
9.372559070587158,-7.52,-0.24,4.08,8.55
9.382552862167358,-3.34,1.26,6.36,7.29
9.395776748657227,1.08,3.0,8.28,8.87
9.402656078338623,3.9,4.38,9.31,11.0
9.41278076171875,4.58,4.74,9.38,11.46
9.422886848449707,2.89,3.94,8.63,9.91
9.432846069335938,0.58,2.74,7.5,8.0
9.44619083404541,-0.58,1.82,6.56,6.83
9.453042030334473,-1.25,1.14,5.85,6.08
9.463109970092773,-2.17,0.37,5.04,5.49
9.473061084747314,-2.56,-0.4,4.02,4.78
9.483129978179932,-3.02,-0.72,2.99,4.31
9.496805906295776,-3.19,-1.19,1.97,3.93
9.50328779220581,-2.89,-1.21,0.79,3.23
9.513364791870117,-2.0,-0.88,-0.99,2.39
9.523458003997803,-0.65,-0.43,-3.14,3.23
9.54623794555664,0.66,-0.04,-4.78,4.82
9.546912908554077,1.31,-0.04,-5.53,5.68
9.553674936294556,1.13,-0.67,-5.43,5.58
9.563732862472534,0.88,-1.68,-4.68,5.04
9.573826789855957,0.44,-2.59,-3.61,4.46
9.596456050872803,-0.06,-3.43,-2.87,4.47
9.597264766693115,-0.77,-3.71,-2.95,4.8
9.603985786437988,-1.0,-3.44,-3.93,5.31
9.614031791687012,0.05,-2.62,-5.42,6.02
9.62411093711853,1.87,-1.65,-6.3,6.77
9.646389961242676,3.88,-1.33,-6.2,7.43
9.647254943847656,5.13,-1.78,-4.94,7.34
9.654379844665527,5.01,-2.99,-2.66,6.41
9.664687871932983,3.69,-4.38,-0.4,5.74
9.674540996551514,2.18,-5.1,1.16,5.66
9.696969032287598,0.09,-4.78,1.89,5.14
9.697669982910156,-1.57,-3.38,2.16,4.3
9.70470905303955,-0.29,-2.11,2.23,3.08
9.714680910110474,2.29,-1.35,1.82,3.22
9.72487497329712,2.17,-0.26,1.55,2.67
9.74648380279541,0.28,0.82,1.76,1.96
9.747180938720703,-0.46,0.43,2.57,2.64
9.754970073699951,-0.29,-0.31,3.87,3.89
9.765014886856079,-0.47,-0.19,5.18,5.2
9.775179862976074,-0.48,-0.23,5.75,5.77
9.796278953552246,-0.73,-0.03,5.28,5.33
9.796980857849121,-0.93,0.54,3.7,3.85
9.805237770080566,-1.06,1.53,1.78,2.57
9.81522274017334,-0.98,2.56,0.78,2.84
9.825469017028809,-0.23,2.82,0.91,2.97
9.845286846160889,0.23,2.95,1.98,3.56
9.845967769622803,0.55,2.7,3.04,4.1
9.855707883834839,0.63,2.28,3.19,3.97
9.865832805633545,0.96,1.75,2.08,2.88
9.875889778137207,1.13,1.2,0.03,1.64
9.896039009094238,1.22,0.52,-2.21,2.57
9.896751880645752,1.62,-0.09,-4.01,4.32
9.905981063842773,2.41,-0.54,-4.99,5.56
9.91603708267212,3.08,-0.92,-5.07,6.0
9.925994873046875,3.04,-1.05,-4.65,5.65
9.9463210105896,2.64,-1.06,-4.18,5.05
9.947021007537842,2.09,-0.85,-4.08,4.66
9.956267833709717,1.49,-0.29,-4.38,4.63
9.966357946395874,1.44,0.4,-5.05,5.26
9.976465940475464,1.47,0.84,-5.5,5.75
9.996399879455566,1.03,1.24,-5.26,5.5
9.997099876403809,0.56,1.27,-4.47,4.68
10.006550788879395,0.63,0.88,-3.55,3.71
10.0172758102417,0.89,0.29,-2.78,2.93
10.026871919631958,0.77,-0.59,-1.84,2.08
10.046271800994873,0.05,-1.95,-0.73,2.08
10.04696798324585,-1.28,-3.73,0.67,4.0
10.057064056396484,-3.41,-5.32,2.2,6.69
10.0673348903656,-6.78,-4.91,3.79,9.18
10.077201843261719,-9.71,-2.77,5.32,11.41
10.096385955810547,-7.51,-0.9,5.9,9.59
10.097092866897583,-1.33,0.76,5.81,6.0
10.107362747192383,4.64,2.21,6.15,8.01
10.117316961288452,6.44,3.48,7.51,10.48
10.12746787071228,3.92,2.58,9.54,10.63
10.146352767944336,-1.36,0.5,11.07,11.16
10.147588729858398,-5.38,-0.98,11.12,12.39
10.157611846923828,-6.79,-2.59,10.16,12.49
10.167544841766357,-6.46,-2.89,9.17,11.58
10.177779912948608,-4.91,-2.06,7.74,9.39
10.196387767791748,-3.68,-1.58,5.81,7.05
10.197680950164795,-2.83,-1.42,3.38,4.63
10.207978963851929,-1.74,-0.89,0.61,2.04
10.218015909194946,-0.37,-0.03,-2.3,2.32
10.228065013885498,0.7,0.67,-4.81,4.9
10.2464919090271,1.34,1.03,-6.39,6.6
10.24799394607544,1.4,0.83,-6.83,7.02
10.258271932601929,1.33,-0.36,-6.25,6.4
10.26820707321167,1.24,-1.74,-4.72,5.18
10.278394937515259,1.15,-2.87,-3.02,4.32
10.296149730682373,0.95,-3.6,-1.61,4.05
10.298361778259277,0.82,-4.04,-1.04,4.25
10.308666944503784,0.54,-3.84,-1.37,4.11
10.318588733673096,1.06,-4.04,-3.38,5.37
10.328752994537354,1.95,-3.84,-5.66,7.11
10.346524953842163,1.56,-2.69,-7.01,7.66
10.348642826080322,0.91,-1.9,-7.73,8.01
10.358901023864746,1.0,-1.51,-7.49,7.7
10.369050025939941,1.71,-1.54,-6.17,6.58
10.379072904586792,2.8,-2.2,-4.52,5.75
10.39646291732788,3.5,-3.2,-3.03,5.62
10.398961067199707,3.61,-4.48,-1.56,5.96
10.409328937530518,3.02,-5.69,-0.38,6.45
10.419254779815674,2.32,-6.53,0.42,6.94
10.429391860961914,1.61,-7.0,1.36,7.31
10.446691989898682,-0.42,-6.14,2.92,6.81
10.449400901794434,-1.61,-4.8,4.63,6.86
10.459722995758057,-0.84,-3.45,5.97,6.94
10.469513893127441,-0.42,-0.81,6.09,6.15
10.479719877243042,0.6,1.91,4.73,5.13
10.496005058288574,1.23,4.65,2.23,5.3
10.499794960021973,0.82,6.49,-0.14,6.54
10.509963989257812,0.14,5.72,-1.71,5.97
10.519991874694824,2.74,1.59,-1.19,3.38
10.530078887939453,3.05,-3.15,2.56,5.07
10.546270847320557,-0.5,-4.84,6.57,8.17
10.550488948822021,-3.01,-6.29,9.2,11.54
10.56036376953125,-6.17,-5.78,9.74,12.89
10.570262908935547,-5.84,-5.28,8.42,11.52
10.58034896850586,-3.35,-3.61,6.04,7.79
10.596194744110107,-1.66,-0.9,3.18,3.69
10.600509881973267,1.58,0.47,-0.63,1.76
10.61060380935669,4.33,2.1,-3.84,6.15
10.620465755462646,4.34,3.17,-5.29,7.54
10.630663871765137,4.05,2.27,-5.49,7.18
10.646676063537598,2.77,-0.15,-4.12,4.96
10.650625944137573,0.39,-1.18,-2.01,2.36
10.660939931869507,-1.0,-2.16,0.12,2.38
10.671000957489014,-1.73,-2.9,1.53,3.7
10.681015968322754,-1.75,-3.14,2.14,4.18
10.6964430809021,-1.26,-3.02,1.72,3.69
10.701020956039429,-0.72,-2.21,0.3,2.34
10.711255073547363,-0.63,-0.57,-1.74,1.93
10.721210956573486,0.33,0.18,-4.1,4.11
10.73125696182251,1.73,0.73,-5.72,6.02
10.746685981750488,2.76,1.23,-6.19,6.88
10.751224994659424,2.65,1.58,-5.61,6.4
10.761512756347656,1.69,1.35,-4.25,4.76
10.771549940109253,0.68,0.48,-2.95,3.06
10.78157901763916,-0.15,-0.14,-1.96,1.97
10.796544075012207,-0.46,-0.68,-1.23,1.47
10.801640033721924,-0.37,-1.81,-0.71,1.97
10.811855792999268,-0.34,-3.24,-0.31,3.27
10.82197093963623,-0.53,-4.27,-0.02,4.3
10.832053899765015,-0.66,-4.96,0.25,5.0
10.84666895866394,-1.36,-5.62,0.69,5.82
10.8521568775177,-4.33,-5.73,1.82,7.4
10.862142086029053,-7.66,-5.08,3.5,9.83
10.872343063354492,-7.93,-3.26,5.52,10.19
10.88231086730957,-3.33,-1.24,7.28,8.1
10.896509885787964,2.87,0.47,8.51,8.99
10.902442932128906,6.84,1.59,9.59,11.88
10.913297891616821,7.25,0.98,10.39,12.7
10.922804832458496,4.36,-1.28,10.29,11.24
10.932615756988525,0.72,-3.37,9.21,9.83
10.946774959564209,-2.28,-4.81,7.91,9.53
10.9527907371521,-4.36,-5.85,6.7,9.9
10.962821960449219,-5.54,-5.93,5.48,9.79
10.972959995269775,-5.42,-5.58,3.59,8.56
10.983036994934082,-4.66,-4.96,1.48,6.96
10.997654914855957,-3.68,-4.4,-0.24,5.74
11.003129005432129,-2.79,-3.61,-1.18,4.71
11.013175010681152,-1.76,-2.55,-1.78,3.57
11.02333688735962,-0.42,-1.41,-2.07,2.53
11.03388500213623,1.1,-0.36,-1.82,2.15
11.043347835540771,2.36,0.22,-1.3,2.7
11.063127994537354,3.08,0.44,-0.66,3.18
11.063829898834229,3.29,0.22,-0.1,3.29
11.073489904403687,2.81,-0.4,0.08,2.83
11.083704948425293,1.78,-1.2,-0.36,2.17
11.09386682510376,0.78,-2.13,-1.27,2.59
11.113074779510498,-0.24,-2.72,-2.45,3.66
11.113831043243408,-0.91,-2.93,-3.69,4.79
11.123872756958008,-1.03,-3.03,-4.78,5.75
11.133752822875977,-0.8,-3.08,-5.65,6.48
11.14395785331726,-0.4,-3.07,-6.19,6.92
11.162144899368286,-0.14,-2.67,-6.12,6.67
11.164094924926758,0.34,-2.22,-5.6,6.03
11.174229860305786,1.23,-2.0,-4.78,5.32
11.184113025665283,1.95,-2.12,-3.93,4.87
11.194434881210327,2.18,-2.71,-3.06,4.63
11.212458848953247,1.68,-3.76,-2.07,4.6
11.214353084564209,0.86,-4.72,-1.01,4.9
11.224555015563965,0.27,-5.47,-0.09,5.47
11.234492778778076,-0.45,-5.41,1.17,5.55
11.244636058807373,-0.91,-4.49,2.88,5.41
11.26311993598938,-0.29,-2.93,4.58,5.44
11.264700889587402,1.76,-1.93,5.88,6.43
11.274829864501953,3.43,-1.02,6.49,7.41
11.284848928451538,3.85,-0.21,6.41,7.48
11.294929027557373,2.43,0.25,5.71,6.21
11.312606811523438,0.84,-0.09,4.97,5.04
11.315054893493652,0.04,-0.66,4.56,4.6
11.325178861618042,-0.61,-1.25,4.52,4.72
11.335206985473633,-0.9,-2.13,4.44,5.0
11.34524393081665,-1.22,-2.52,3.95,4.84
11.362802982330322,-1.69,-2.48,2.95,4.2
11.365358829498291,-1.73,-2.21,1.67,3.26
11.375511884689331,-1.18,-1.73,0.82,2.24
11.385395050048828,-0.62,-1.16,0.83,1.55
11.3956298828125,-0.18,-1.03,1.81,2.09
11.412770748138428,0.09,-1.17,3.12,3.33
11.415709972381592,0.01,-1.37,4.03,4.25
11.425889015197754,-0.14,-1.48,3.97,4.23
11.435794830322266,-0.33,-1.62,3.05,3.46
11.445993900299072,-0.2,-1.84,1.49,2.37
11.462365865707397,0.22,-1.7,-0.26,1.73
11.46598196029663,0.72,-1.58,-1.9,2.57
11.47615385055542,1.07,-1.44,-3.16,3.63
11.486239910125732,1.53,-1.52,-3.73,4.3
11.496243953704834,1.41,-1.57,-3.29,3.9
11.512251853942871,0.72,-1.71,-2.02,2.74
11.516349792480469,0.23,-2.02,-0.65,2.13
11.52655291557312,0.12,-2.18,0.11,2.18
11.536580085754395,-0.05,-2.21,0.32,2.23
11.546579837799072,-0.02,-2.1,0.09,2.1
11.562746047973633,0.1,-1.72,-0.36,1.76
11.567145824432373,0.14,-1.37,-0.83,1.6
11.57688593864441,0.48,-1.18,-1.22,1.76
11.586809873580933,0.66,-1.06,-1.15,1.69
11.596970081329346,0.29,-1.15,-0.4,1.25
11.612806797027588,-0.27,-1.45,0.84,1.69
11.61716604232788,-0.98,-1.65,1.92,2.71
11.627203941345215,-1.38,-1.65,2.47,3.27
11.637124061584473,-1.27,-1.44,2.37,3.05
11.647264957427979,-0.83,-1.06,1.65,2.12
11.662442922592163,0.02,-0.6,0.5,0.78
11.66725206375122,0.92,-0.08,-0.47,1.03
11.677579879760742,1.07,0.41,-0.75,1.36
11.687641859054565,1.37,0.35,-0.62,1.54
11.697600841522217,1.69,0.01,0.05,1.69
11.712390899658203,1.91,-0.82,1.1,2.35
11.717644929885864,1.85,-1.5,2.09,3.16
11.72774600982666,1.5,-1.99,2.58,3.58
11.73813796043396,0.87,-2.19,2.29,3.28
11.747946739196777,0.21,-2.14,1.35,2.53
11.762350082397461,0.29,-1.75,-0.11,1.77
11.767915964126587,0.6,-1.05,-1.33,1.79
11.77809476852417,0.87,-0.67,-1.83,2.13
11.788261890411377,0.73,-0.45,-1.56,1.78
11.79828405380249,0.51,-0.38,-0.72,0.96
11.812787055969238,0.26,-0.25,-0.02,0.36
11.818382740020752,0.06,-0.1,0.08,0.14
11.828457832336426,-0.01,0.03,-0.36,0.36
11.83855676651001,0.06,0.21,-0.95,0.97
11.84864592552185,0.25,0.32,-1.27,1.33
11.863122940063477,0.3,0.37,-1.19,1.28
11.868704795837402,0.06,0.28,-0.87,0.91
11.878852844238281,-0.32,0.09,-0.5,0.6
11.888940811157227,-0.49,-0.1,-0.3,0.58
11.898904800415039,-0.63,-0.15,-0.19,0.67
11.91249394416809,-0.76,-0.27,-0.07,0.8
11.919084072113037,-0.86,-0.5,-0.01,0.99
11.929059982299805,-1.05,-0.63,-0.01,1.22
11.939191818237305,-1.03,-0.72,-0.03,1.25
11.949289798736572,-0.77,-0.76,-0.05,1.08
11.963061809539795,-0.36,-0.59,-0.01,0.69
11.969267845153809,0.09,-0.38,0.19,0.43
11.97944688796997,0.13,-0.22,0.45,0.51
11.989569902420044,-0.09,-0.18,0.64,0.67
11.999592781066895,-0.39,-0.21,0.62,0.76
12.013343811035156,-0.56,-0.29,0.33,0.71
12.01826786994934,-0.53,-0.34,-0.11,0.63
12.028506755828857,-0.42,-0.38,-0.45,0.72
12.038573741912842,-0.17,-0.5,-0.58,0.78
12.04855489730835,-0.01,-0.53,-0.4,0.66
12.06201696395874,0.1,-0.55,-0.1,0.56
12.068719863891602,0.14,-0.53,0.2,0.58
12.078982830047607,0.13,-0.42,0.45,0.62
12.089047908782959,0.19,-0.33,0.51,0.63
12.099030017852783,0.14,-0.24,0.33,0.43
12.113133907318115,0.12,-0.18,-0.02,0.21
12.119081974029541,0.13,-0.1,-0.39,0.42
12.129212856292725,0.18,-0.05,-0.51,0.54
12.139262914657593,0.26,-0.04,-0.31,0.4
12.149287939071655,0.48,-0.02,0.1,0.49
12.162672996520996,0.67,0.01,0.59,0.89
12.16938304901123,0.57,-0.01,1.0,1.15
12.179442882537842,0.44,-0.15,1.18,1.26
12.189548969268799,0.26,-0.21,1.04,1.09
12.211750030517578,0.07,-0.24,0.61,0.65
12.21245288848877,-0.06,-0.3,0.04,0.3
12.219864845275879,-0.14,-0.36,-0.47,0.6
12.229889869689941,-0.2,-0.35,-0.76,0.86
12.23991584777832,-0.19,-0.42,-0.79,0.91
12.262528896331787,-0.13,-0.45,-0.51,0.69
12.263305902481079,-0.02,-0.45,-0.01,0.45
12.27013087272644,0.13,-0.37,0.5,0.63
12.280149936676025,0.16,-0.24,0.83,0.87
12.290381908416748,0.11,-0.23,0.88,0.91
12.312777042388916,0.03,-0.21,0.77,0.79
12.31346082687378,-0.08,-0.24,0.55,0.6
12.320474863052368,-0.18,-0.33,0.3,0.48
12.330630779266357,-0.22,-0.34,0.08,0.41
12.340565919876099,-0.11,-0.39,-0.04,0.4
12.362329959869385,-0.02,-0.4,-0.01,0.4
12.362998962402344,0.09,-0.45,0.13,0.47
12.370790958404541,0.06,-0.45,0.28,0.53
12.38093900680542,0.02,-0.52,0.39,0.65
12.390970945358276,-0.01,-0.55,0.43,0.69
12.413400888442993,-0.05,-0.46,0.4,0.61
12.41408896446228,0.0,-0.35,0.28,0.44
12.421088933944702,0.09,-0.16,0.13,0.22
12.431292057037354,0.23,0.02,0.04,0.23
12.441341876983643,0.4,0.09,-0.03,0.41
12.463116884231567,0.5,0.1,-0.07,0.51
12.463772773742676,0.51,0.05,-0.07,0.51
12.471344947814941,0.42,-0.04,-0.02,0.42
12.481401920318604,0.33,-0.14,0.0,0.35
12.491646766662598,0.27,-0.21,0.01,0.34
12.512362957000732,0.12,-0.21,0.05,0.24
12.513025760650635,-0.06,-0.26,0.15,0.3
12.521702766418457,-0.21,-0.29,0.21,0.41
12.531831741333008,-0.21,-0.35,0.09,0.41
12.541939735412598,-0.23,-0.32,-0.09,0.4
12.562726974487305,-0.25,-0.35,-0.14,0.45
12.563398838043213,-0.2,-0.41,-0.01,0.45
12.572056770324707,0.0,-0.43,0.16,0.45
12.582059860229492,0.15,-0.34,0.35,0.51
12.59229588508606,0.19,-0.25,0.53,0.61
12.612688064575195,0.07,-0.2,0.59,0.62
12.613400936126709,-0.04,-0.17,0.47,0.5
12.622387886047363,-0.13,-0.12,0.25,0.3
12.63252305984497,-0.11,-0.05,0.07,0.13
12.642618894577026,0.01,0.02,-0.05,0.05
12.663068771362305,0.14,0.06,-0.06,0.16
12.663749933242798,0.14,0.04,0.02,0.14
12.67274785041809,0.1,-0.01,0.12,0.15
12.682847023010254,0.0,-0.03,0.17,0.17
12.69292688369751,-0.05,-0.06,0.13,0.15
12.712631940841675,-0.04,-0.08,0.07,0.11
12.713315963745117,-0.07,-0.1,0.03,0.12
12.72311782836914,-0.1,-0.21,0.08,0.24
12.733582973480225,-0.21,-0.32,0.21,0.43
12.74328899383545,-0.29,-0.41,0.32,0.59
12.762356758117676,-0.18,-0.41,0.26,0.51
12.76316785812378,-0.04,-0.32,0.12,0.34
12.773335933685303,0.04,-0.23,-0.05,0.23
12.783477783203125,0.1,-0.18,-0.13,0.24
12.793632984161377,0.17,-0.11,-0.1,0.22
12.812465906143188,0.15,-0.08,0.03,0.17
12.813457012176514,0.07,-0.05,0.1,0.13
12.82369589805603,0.06,-0.03,0.04,0.07
12.833677768707275,0.19,-0.04,-0.07,0.2
12.843889951705933,0.22,-0.06,-0.06,0.23
12.862642765045166,0.15,-0.12,0.1,0.21
12.863784790039062,0.1,-0.15,0.24,0.3
12.874015808105469,0.06,-0.14,0.29,0.32
12.884078025817871,0.03,-0.1,0.24,0.26
12.894227981567383,0.07,-0.01,0.09,0.11
12.912744045257568,0.03,0.09,-0.03,0.09
12.914127826690674,-0.03,0.12,-0.07,0.14
12.924356937408447,-0.07,0.08,-0.04,0.11
12.934407949447632,-0.13,0.04,0.06,0.14
12.944560050964355,-0.09,-0.05,0.13,0.16
12.962509870529175,-0.04,-0.1,0.18,0.2
12.964446067810059,-0.02,-0.18,0.2,0.26
12.97466492652893,-0.02,-0.25,0.2,0.32
12.984707832336426,-0.02,-0.23,0.22,0.31
12.994906902313232,-0.09,-0.18,0.18,0.26
13.012621879577637,-0.19,-0.13,0.06,0.23
13.01491093635559,-0.3,-0.03,-0.13,0.32
13.025135040283203,-0.32,0.06,-0.33,0.46
13.035148859024048,-0.26,0.06,-0.46,0.53
13.045217990875244,-0.23,0.07,-0.38,0.44
13.062514781951904,-0.1,0.04,-0.15,0.18
13.065078735351562,0.04,0.01,0.12,0.12
13.075341939926147,0.14,0.02,0.37,0.39
13.085296869277954,0.21,0.02,0.55,0.58
13.095530986785889,0.17,0.06,0.54,0.56
13.112520933151245,0.09,0.11,0.37,0.39
13.115488052368164,0.04,0.17,0.09,0.19
13.12585186958313,0.01,0.21,-0.22,0.3
13.135697841644287,-0.07,0.2,-0.47,0.51
13.14584994316101,-0.13,0.15,-0.5,0.53
13.162567853927612,-0.13,0.11,-0.39,0.42
13.165858745574951,-0.19,0.14,-0.29,0.37
13.176033020019531,-0.31,0.06,-0.19,0.36
13.185979843139648,-0.34,0.0,-0.03,0.34
13.196159839630127,-0.2,-0.01,0.11,0.22
13.212166786193848,-0.12,-0.01,0.25,0.27
13.216725826263428,-0.14,-0.06,0.37,0.4
13.226524829864502,-0.21,-0.08,0.42,0.47
13.236345767974854,-0.2,-0.09,0.37,0.43
13.246362924575806,-0.16,-0.07,0.26,0.31
13.26252794265747,-0.16,-0.06,0.14,0.22
13.266727924346924,-0.13,-0.06,0.02,0.14
13.276765823364258,-0.07,-0.05,0.0,0.08
13.286576747894287,0.04,-0.06,0.0,0.07
13.296743869781494,0.09,-0.04,0.09,0.13
13.312630891799927,0.16,0.0,0.18,0.24
13.31683874130249,0.16,0.05,0.23,0.28
13.327067852020264,0.09,0.07,0.2,0.23
13.336991786956787,0.0,0.08,0.09,0.12
13.347038745880127,-0.01,0.07,-0.15,0.16
13.362442016601562,-0.13,0.12,-0.28,0.33
13.366988897323608,-0.18,0.06,-0.24,0.3
13.377304077148438,-0.2,0.08,-0.1,0.23
13.387444019317627,-0.13,0.17,-0.04,0.21
13.397511005401611,0.07,0.23,-0.13,0.27
13.412394046783447,0.29,0.28,-0.2,0.45
13.417427062988281,0.29,0.33,-0.03,0.44
13.427690982818604,0.18,0.24,0.28,0.41
13.437835931777954,-0.05,0.17,0.5,0.53
13.447789907455444,-0.14,0.1,0.47,0.5
13.462682962417603,-0.06,0.09,0.2,0.22
13.467702865600586,-0.09,0.12,-0.06,0.16
13.477895736694336,-0.27,0.09,-0.15,0.32
13.488082885742188,-0.43,0.0,-0.11,0.44
13.49816608428955,-0.47,-0.09,-0.08,0.48
13.513291835784912,-0.26,-0.1,-0.07,0.28
13.518187999725342,-0.15,-0.02,-0.06,0.16
13.528154850006104,-0.12,-0.01,0.02,0.12
13.538435935974121,-0.16,0.02,0.18,0.24
13.54855990409851,-0.11,0.06,0.27,0.29
13.563882827758789,0.11,0.11,0.15,0.21
13.568535804748535,0.18,0.25,-0.02,0.3
13.578659057617188,0.12,0.28,-0.03,0.3
13.588774919509888,0.0,0.24,0.02,0.24
13.598795890808105,-0.09,0.21,-0.02,0.22
13.61461877822876,-0.04,0.17,-0.2,0.26
13.618891954421997,0.08,0.17,-0.39,0.43
13.62891674041748,0.15,0.28,-0.39,0.5
13.639142990112305,0.13,0.33,-0.16,0.38
13.649101734161377,0.03,0.34,0.05,0.34
13.66392183303833,0.05,0.33,0.08,0.34
13.669251918792725,0.09,0.36,0.05,0.37
13.679351806640625,0.07,0.35,0.07,0.36
13.689397811889648,-0.02,0.29,0.16,0.33
13.70003080368042,-0.1,0.28,0.18,0.34
13.709527969360352,-0.16,0.28,0.07,0.33
13.730321884155273,-0.18,0.34,-0.13,0.4
13.731109857559204,-0.1,0.4,-0.36,0.54
13.739689826965332,-0.02,0.46,-0.5,0.67
13.750120878219604,-0.02,0.49,-0.49,0.69
13.759806871414185,-0.04,0.49,-0.32,0.58
13.779242992401123,-0.01,0.45,-0.1,0.46
13.779913902282715,-0.01,0.4,0.13,0.42
13.79000997543335,-0.11,0.32,0.29,0.44
13.800097942352295,-0.28,0.29,0.3,0.5
13.810245037078857,-0.44,0.34,0.12,0.56
13.829436779022217,-0.51,0.4,-0.16,0.66
13.830152034759521,-0.43,0.45,-0.4,0.73
13.840380907058716,-0.26,0.55,-0.49,0.78
13.850176811218262,-0.06,0.59,-0.37,0.69
13.860588073730469,0.07,0.55,-0.19,0.58
13.878659963607788,0.06,0.47,0.0,0.47
13.88041877746582,-0.04,0.38,0.17,0.41
13.890659809112549,-0.09,0.3,0.24,0.39
13.900567054748535,-0.09,0.34,0.16,0.38
13.910831928253174,-0.05,0.42,-0.06,0.42
13.92863392829895,-0.07,0.53,-0.26,0.59
13.93074083328247,-0.18,0.61,-0.39,0.74
13.941007852554321,-0.24,0.67,-0.53,0.88
13.950894832611084,-0.08,0.76,-0.72,1.04
13.961145877838135,0.23,0.8,-0.88,1.21
13.978744983673096,0.39,0.69,-0.86,1.16
13.981181859970093,0.29,0.43,-0.64,0.82
13.991353988647461,0.04,0.09,-0.26,0.27
14.001206874847412,-0.13,-0.19,0.05,0.23
14.011528015136719,-0.37,-0.4,0.01,0.54
14.02882194519043,-0.45,-0.49,-0.43,0.79
14.031421899795532,-0.38,-0.29,-1.01,1.11
14.041753768920898,-0.1,0.07,-1.4,1.4
14.051590919494629,0.34,0.43,-1.69,1.77
14.061810970306396,0.58,0.74,-1.74,1.97
14.078857898712158,0.53,0.9,-1.37,1.72
14.08174180984497,0.39,0.87,-0.65,1.15
14.092010974884033,0.27,0.71,0.04,0.76
14.101967811584473,0.15,0.65,0.42,0.78
14.112177848815918,0.14,0.62,0.43,0.76
14.128599882125854,0.23,0.69,0.19,0.75
14.132154941558838,0.39,0.89,-0.09,0.97
14.142334938049316,0.55,1.14,-0.25,1.29
14.152186870574951,0.64,1.41,-0.21,1.56
14.162497997283936,0.55,1.75,0.04,1.83
14.178822040557861,0.41,2.05,0.45,2.13
14.18263292312622,0.35,2.26,0.84,2.43
14.192714929580688,0.36,2.38,1.05,2.62
14.202837944030762,0.32,2.28,1.08,2.54
14.212849855422974,0.08,1.95,1.0,2.19
14.228357791900635,-0.29,1.46,0.88,1.72
14.233428001403809,-0.56,1.01,0.75,1.37
14.24297285079956,-0.76,0.74,0.59,1.21
14.253060817718506,-0.82,0.63,0.31,1.07
14.263189792633057,-0.76,0.58,-0.16,0.96
14.279291868209839,-0.64,0.58,-0.7,1.11
14.28340196609497,-0.52,0.59,-1.17,1.4
14.293420791625977,-0.39,0.61,-1.51,1.67
14.303621768951416,-0.21,0.62,-1.65,1.77
14.313446044921875,-0.09,0.67,-1.57,1.7
14.327823877334595,0.04,0.74,-1.31,1.5
14.333467960357666,0.27,0.81,-1.03,1.33
14.343549966812134,0.31,0.96,-0.8,1.28
14.35388994216919,0.33,1.14,-0.68,1.36
14.363671779632568,0.35,1.36,-0.7,1.56
14.379501819610596,0.4,1.59,-0.76,1.8
14.38384199142456,0.46,1.81,-0.82,2.03
14.394017934799194,0.53,1.92,-0.86,2.16
14.40403699874878,0.58,1.99,-0.8,2.22
14.414098739624023,0.63,2.02,-0.58,2.19
14.427189826965332,0.59,1.96,-0.25,2.06
14.434058904647827,0.39,1.89,0.07,1.93
14.444305896759033,0.21,1.85,0.34,1.89
14.454384803771973,0.04,1.86,0.48,1.92
14.464387893676758,-0.05,1.91,0.42,1.95
14.477751731872559,-0.05,2.0,0.27,2.01
14.484403848648071,0.0,2.06,0.13,2.06
14.494546890258789,0.09,2.0,0.05,2.0
14.504664897918701,0.15,1.86,0.07,1.86
14.514753818511963,0.16,1.64,0.22,1.66
14.52833890914917,0.15,1.43,0.53,1.53
14.534703731536865,0.17,1.24,0.89,1.53
14.544931888580322,0.05,1.16,1.15,1.63
14.555073738098145,0.01,1.12,1.16,1.61
14.564986944198608,0.01,1.22,1.02,1.59
14.578916072845459,0.04,1.44,0.86,1.67
14.58509874343872,-0.09,1.82,0.71,1.95
14.595149993896484,-0.45,2.47,0.61,2.58
14.605387926101685,-0.55,2.73,0.74,2.88
14.615392923355103,0.24,2.54,0.82,2.67
14.629312992095947,0.77,2.42,1.09,2.76
14.635603904724121,0.58,1.88,1.68,2.58
14.645549774169922,0.27,1.02,2.32,2.54
14.655619859695435,-0.06,0.45,2.9,2.93
14.665745735168457,-0.18,0.17,3.18,3.18
14.67996883392334,-0.03,-0.03,2.94,2.94
14.685947895050049,0.19,-0.08,2.24,2.24
14.696125030517578,0.3,0.03,1.36,1.39
14.706109046936035,0.51,0.04,0.55,0.75
14.72897481918335,0.64,-0.19,-0.13,0.68
14.729688882827759,0.47,-0.43,-0.39,0.74
14.7361319065094,0.22,-0.78,-0.12,0.81
14.746255874633789,-0.07,-1.12,0.37,1.18
14.756362915039062,-0.4,-1.22,0.69,1.45
14.779069900512695,-0.63,-1.27,0.57,1.52
14.779764890670776,-0.92,-1.29,0.02,1.58
14.786571025848389,-1.12,-1.14,-0.6,1.7
14.796580791473389,-1.05,-0.92,-1.16,1.81
14.806762933731079,-0.93,-0.59,-1.61,1.95
14.829308032989502,-0.83,-0.34,-1.87,2.07
14.830010890960693,-0.75,-0.23,-1.93,2.08
14.836935043334961,-0.78,-0.23,-1.71,1.89
14.847003936767578,-0.77,-0.34,-1.21,1.47
14.857158899307251,-0.67,-0.47,-0.68,1.06
14.879415035247803,-0.54,-0.64,-0.24,0.87
14.880119800567627,-0.48,-0.8,0.06,0.93
14.887259006500244,-0.39,-0.94,0.19,1.03
14.897356033325195,-0.31,-1.03,0.16,1.08
14.907479763031006,-0.34,-1.02,-0.06,1.07
14.929622888565063,-0.29,-0.93,-0.39,1.04
14.930327892303467,-0.13,-0.75,-0.75,1.06
14.937551975250244,0.03,-0.53,-0.95,1.08
14.947738885879517,0.18,-0.37,-1.05,1.12
14.957758903503418,0.21,-0.21,-1.14,1.17
14.979414939880371,0.27,-0.1,-1.22,1.25
14.980108737945557,0.33,0.06,-1.3,1.34
14.987847805023193,0.3,0.22,-1.38,1.42
14.997919082641602,0.23,0.28,-1.45,1.49
15.008044958114624,0.13,0.29,-1.55,1.58
15.02933406829834,0.06,0.29,-1.58,1.6
15.029967784881592,-0.03,0.31,-1.58,1.61
15.038197994232178,-0.15,0.29,-1.5,1.53
15.048081874847412,-0.32,0.29,-1.35,1.41
15.058366775512695,-0.46,0.33,-1.19,1.31
15.078703880310059,-0.48,0.38,-1.0,1.17
15.079392910003662,-0.5,0.46,-0.78,1.03
15.08853006362915,-0.51,0.51,-0.62,0.95
15.098448753356934,-0.54,0.57,-0.55,0.95
15.108754873275757,-0.46,0.69,-0.46,0.94
15.12893795967102,-0.29,0.83,-0.3,0.92
15.129631996154785,-0.12,0.99,-0.15,1.0
15.138810873031616,-0.01,1.07,-0.12,1.07
15.148955821990967,0.03,1.14,-0.16,1.15
15.159019947052002,0.1,1.22,-0.2,1.24
15.17890977859497,0.11,1.27,-0.18,1.28
15.17960786819458,0.12,1.18,-0.1,1.19
15.189198970794678,0.03,1.16,0.17,1.17
15.199181079864502,-0.08,1.19,0.64,1.35
15.20936107635498,-0.06,1.14,1.1,1.58
15.229142904281616,-0.06,1.16,1.46,1.86
15.229827880859375,-0.02,1.12,1.8,2.12
15.239505767822266,-0.13,1.05,2.13,2.37
15.249942779541016,-0.56,1.32,2.36,2.76
15.259706020355225,-0.87,1.55,2.38,2.97
15.279464960098267,-0.84,1.48,2.14,2.73
15.280148029327393,-0.6,1.47,1.84,2.43
15.289851903915405,-0.43,1.72,1.71,2.46
15.299915790557861,0.31,1.77,1.72,2.48
15.31013298034668,1.12,1.75,2.0,2.88
15.329487800598145,1.91,1.33,2.14,3.16
15.330191850662231,2.37,0.96,2.2,3.37
15.3401460647583,2.08,0.17,2.27,3.08
15.350115776062012,1.36,-0.84,2.49,2.95
15.36043095588684,0.42,-1.82,2.72,3.29
15.379305839538574,-0.4,-2.62,2.73,3.8
15.380265951156616,-1.09,-3.04,2.3,3.96
15.390422821044922,-1.48,-3.16,1.51,3.8
15.40043592453003,-1.3,-2.94,0.41,3.24
15.410680770874023,-0.73,-2.5,-0.58,2.66
15.429021835327148,0.03,-1.92,-1.16,2.24
15.4305579662323,0.73,-1.27,-1.29,1.95
15.440756797790527,1.21,-0.74,-1.17,1.83
15.450740814208984,1.41,-0.45,-1.06,1.82
15.460938930511475,1.27,-0.3,-1.05,1.67
15.479326963424683,1.03,-0.38,-1.05,1.51
15.480869770050049,0.84,-0.62,-1.01,1.45
15.491129875183105,0.66,-0.79,-0.83,1.32
15.501254081726074,0.46,-0.99,-0.55,1.22
15.51140308380127,0.22,-1.11,-0.26,1.16
15.529034852981567,-0.04,-1.04,-0.12,1.04
15.531284809112549,-0.21,-0.94,-0.26,0.99
15.541502952575684,-0.21,-0.75,-0.56,0.95
15.551517963409424,-0.04,-0.52,-0.91,1.04
15.561583995819092,0.34,-0.31,-1.22,1.3
15.578710079193115,0.65,-0.09,-1.51,1.64
15.581523895263672,0.92,0.01,-1.7,1.93
15.591793060302734,0.92,0.12,-1.76,1.98
15.601883888244629,0.7,0.13,-1.78,1.91
15.612148761749268,0.48,0.15,-1.66,1.73
15.629279851913452,0.2,0.11,-1.5,1.51
15.631945848464966,0.02,-0.04,-1.43,1.43
15.642178058624268,-0.01,-0.13,-1.46,1.46
15.652080059051514,-0.07,-0.16,-1.5,1.51
15.662270069122314,0.02,-0.21,-1.68,1.69
15.678761959075928,0.01,-0.18,-1.74,1.74
15.682291030883789,0.04,-0.24,-1.52,1.53
15.692503929138184,0.39,-0.12,-1.18,1.24
15.70264196395874,0.2,0.25,-0.92,0.97
15.712687969207764,0.01,0.21,-0.87,0.89
15.729249000549316,-0.06,0.29,-0.82,0.87
15.734395027160645,-0.23,0.36,-1.28,1.34
15.742843866348267,-0.44,0.3,-1.47,1.56
15.752886772155762,-0.15,0.58,-1.3,1.43
15.762925863265991,0.09,0.82,-0.81,1.15
15.778722763061523,0.2,0.83,-0.19,0.87
15.78314995765686,0.14,0.97,0.3,1.02
15.7930908203125,0.13,1.19,0.84,1.46
15.803239822387695,0.04,1.27,1.17,1.72
15.813584804534912,-0.17,1.08,1.04,1.5
15.82889175415039,-0.4,1.04,0.58,1.25
15.833158016204834,-0.32,1.06,0.45,1.19
15.843464851379395,0.03,0.79,0.55,0.96
15.853285789489746,0.11,0.49,1.05,1.16
15.863507747650146,-0.08,0.32,1.84,1.86
15.878669738769531,-0.19,0.34,2.47,2.5
15.883538961410522,-0.82,0.68,2.94,3.12
15.893838882446289,-1.27,1.07,3.08,3.49
15.903909921646118,-1.18,1.83,2.7,3.46
15.913890838623047,-0.62,2.48,1.93,3.2
15.928410053253174,0.16,2.48,1.19,2.75
15.933912754058838,0.64,2.15,0.99,2.45
15.944047927856445,0.88,1.74,1.47,2.44
15.954190731048584,0.84,0.64,2.25,2.48
15.964210033416748,0.59,-0.71,3.04,3.17
15.979074001312256,0.25,-1.48,3.45,3.76
15.984197854995728,-0.24,-1.72,3.3,3.72
15.994380950927734,-0.49,-1.99,2.75,3.42
16.00444984436035,-0.64,-1.9,2.0,2.83
16.014447927474976,-0.62,-1.32,0.89,1.7
16.028977870941162,-0.65,-0.8,-0.12,1.03
16.03459405899048,-0.61,-0.61,-0.89,1.23
16.04465675354004,-0.66,-0.37,-1.26,1.46
16.054783821105957,-0.69,-0.25,-1.25,1.44
16.064912796020508,-0.81,-0.21,-1.11,1.39
16.079638957977295,-0.88,-0.18,-0.99,1.33
16.08501696586609,-0.71,-0.22,-0.89,1.15
16.09500503540039,-0.3,-0.38,-0.72,0.86
16.105185985565186,0.08,-0.52,-0.5,0.72
16.115216732025146,0.27,-0.67,-0.21,0.75
16.129576921463013,0.34,-0.86,0.09,0.92
16.135221004486084,0.21,-1.07,0.36,1.14
16.145448923110962,-0.08,-1.25,0.56,1.37
16.155459880828857,-0.33,-1.36,0.47,1.47
16.165442943572998,-0.53,-1.36,-0.01,1.45
16.179703950881958,-0.51,-1.23,-0.73,1.51
16.185659885406494,-0.15,-1.03,-1.5,1.82
16.19566774368286,0.22,-0.79,-2.13,2.28
16.205851078033447,0.46,-0.58,-2.57,2.67
16.216466903686523,0.48,-0.42,-2.77,2.84
16.225971937179565,0.37,-0.32,-2.67,2.71
16.24613380432129,0.23,-0.32,-2.3,2.33
16.246810913085938,0.0,-0.28,-1.79,1.81
16.256064891815186,-0.15,-0.27,-1.39,1.42
16.266529083251953,-0.28,-0.29,-1.32,1.38
16.27629590034485,-0.41,-0.21,-1.5,1.56
16.295825958251953,-0.33,-0.01,-1.78,1.81
16.29653286933899,-0.17,0.25,-1.97,1.99
16.306395053863525,-0.06,0.53,-1.91,1.98
16.31633687019348,0.04,0.62,-1.76,1.86
16.326729774475098,0.01,0.68,-1.56,1.7
16.345258951187134,-0.09,0.66,-1.28,1.44
16.346508979797363,-0.24,0.58,-0.82,1.03
16.35671377182007,-0.32,0.58,-0.3,0.72
16.366649866104126,-0.41,0.74,0.22,0.87
16.376863956451416,-0.37,0.91,0.5,1.1
16.39502787590027,-0.28,1.14,0.51,1.27
16.396806955337524,-0.12,1.33,0.23,1.35
16.407104969024658,-0.05,1.43,-0.13,1.43
16.41701889038086,0.07,1.46,-0.18,1.47
16.427231788635254,0.1,1.32,0.17,1.33
16.444933891296387,0.06,0.98,0.74,1.22
16.447312831878662,-0.14,0.56,1.36,1.47
16.457398891448975,-0.36,0.17,1.91,1.95
16.467230796813965,-0.72,0.2,2.43,2.54
16.477434873580933,-1.13,0.74,2.77,3.08
16.49499797821045,-1.16,1.36,2.73,3.26
16.49763774871826,-0.72,1.63,2.37,2.96
16.507665872573853,-0.04,1.57,2.14,2.65
16.517672061920166,0.5,1.39,2.28,2.71
16.5279598236084,1.08,1.0,2.83,3.18
16.5452299118042,1.39,0.65,3.62,3.93
16.54778790473938,1.3,0.09,4.21,4.4
16.55808186531067,0.98,-0.66,4.42,4.57
16.568017959594727,0.57,-1.39,4.27,4.52
16.57818603515625,-0.02,-1.95,3.88,4.34
16.594815731048584,-0.81,-2.38,3.32,4.16
16.598169803619385,-1.46,-2.47,2.53,3.82
16.608428955078125,-1.57,-2.24,1.45,3.09
16.618310928344727,-1.02,-1.95,0.33,2.22
16.6285457611084,-0.16,-1.56,-0.44,1.62
16.645187854766846,0.61,-1.16,-0.7,1.48
16.648587942123413,1.19,-0.78,-0.49,1.5
16.65873098373413,1.63,-0.56,-0.1,1.72
16.668596744537354,1.67,-0.47,0.14,1.74
16.67885994911194,1.49,-0.52,-0.02,1.57
16.69548797607422,1.24,-0.64,-0.56,1.5
16.69891095161438,0.88,-0.78,-1.23,1.7
16.709088802337646,0.54,-0.96,-1.78,2.09
16.719234943389893,0.13,-1.0,-2.09,2.32
16.72915291786194,-0.15,-1.05,-2.17,2.41
16.745239734649658,-0.38,-0.99,-2.18,2.42
16.749746799468994,-0.42,-0.79,-2.15,2.32
16.75944185256958,-0.28,-0.61,-2.05,2.15
16.769284963607788,-0.1,-0.4,-1.8,1.84
16.779485940933228,0.06,-0.24,-1.54,1.55
16.795119762420654,0.08,-0.2,-1.46,1.47
16.799795866012573,0.05,-0.23,-1.5,1.51
16.809836864471436,-0.05,-0.24,-1.6,1.61
16.819664001464844,-0.11,-0.22,-1.73,1.74
16.82988977432251,-0.12,-0.21,-1.99,2.0
16.84587788581848,-0.14,-0.15,-2.26,2.26
16.849824905395508,-0.12,-0.02,-2.34,2.34
16.86014175415039,-0.01,0.1,-2.22,2.22
16.87019681930542,0.08,0.24,-1.96,1.97
16.88021492958069,0.11,0.31,-1.63,1.66
16.89583683013916,0.12,0.3,-1.37,1.4
16.900166988372803,0.08,0.26,-1.2,1.23
16.910304069519043,0.09,0.26,-1.05,1.08
16.920533895492554,0.21,0.28,-0.92,0.98
16.930473804473877,0.23,0.34,-0.9,0.98
16.945376873016357,0.19,0.42,-0.89,1.0
16.950637817382812,0.11,0.56,-0.87,1.04
16.960644960403442,0.09,0.81,-0.85,1.17
16.97076177597046,0.17,1.14,-0.81,1.4
16.98083782196045,0.31,1.43,-0.88,1.7
16.995343923568726,0.32,1.65,-0.95,1.93
17.000839948654175,0.29,1.76,-0.74,1.93
17.010982036590576,0.25,1.72,-0.17,1.74
17.021187782287598,0.14,1.56,0.55,1.66
17.031121730804443,0.0,1.34,1.14,1.75
17.045598030090332,-0.19,1.11,1.52,1.89
17.051212787628174,-0.34,0.84,1.72,1.94
17.06131601333618,-0.39,0.59,1.8,1.93
17.071475982666016,-0.4,0.4,1.91,1.99
17.081438064575195,-0.83,0.62,2.2,2.43
17.094915866851807,-1.48,1.35,2.57,3.25
17.101669788360596,-1.69,2.1,2.74,3.84
17.11164379119873,-1.4,2.57,2.65,3.94
17.121750831604004,-0.5,2.7,2.45,3.68
17.131850957870483,0.32,2.72,2.39,3.63
17.14572787284851,0.8,2.15,2.7,3.54
17.151819944381714,1.06,0.91,3.38,3.65
17.161975860595703,1.2,-0.51,4.29,4.48
17.172074794769287,1.07,-1.7,5.12,5.49
17.182143926620483,0.85,-2.66,5.4,6.07
17.196313858032227,0.31,-2.74,4.83,5.56
17.20223093032837,-0.56,-2.72,3.56,4.51
17.212251901626587,-0.91,-2.38,1.81,3.12
17.222416877746582,-0.87,-1.54,0.0,1.76
17.24604892730713,-0.71,-0.97,-1.4,1.84
17.246760845184326,-0.7,-0.61,-2.22,2.4
17.252625942230225,-0.68,-0.29,-2.64,2.74
17.262619018554688,-0.96,0.0,-2.56,2.73
17.27281093597412,-1.01,-0.15,-2.05,2.29
17.29595685005188,-0.8,-0.35,-1.38,1.63
17.29664373397827,-0.52,-0.45,-0.8,1.05
17.302995920181274,-0.14,-0.73,-0.47,0.87
17.312944889068604,0.18,-1.05,-0.4,1.13
17.323124885559082,0.31,-1.32,-0.56,1.46
17.346166849136353,0.17,-1.49,-0.8,1.69
17.346842765808105,0.01,-1.6,-1.1,1.94
17.35330295562744,-0.12,-1.56,-1.44,2.12
17.363383769989014,-0.2,-1.43,-1.79,2.29
17.37347388267517,-0.14,-1.24,-2.11,2.45
17.396058082580566,0.04,-0.96,-2.46,2.64
17.39675998687744,0.26,-0.74,-2.78,2.88
17.403472900390625,0.48,-0.58,-3.01,3.1
17.413646936416626,0.56,-0.43,-3.0,3.08
17.423852920532227,0.52,-0.35,-2.66,2.73
17.445838928222656,0.42,-0.39,-2.1,2.17
17.446527004241943,0.25,-0.48,-1.58,1.67
17.453957080841064,0.11,-0.53,-1.24,1.35
17.464056968688965,0.08,-0.49,-1.12,1.22
17.474074840545654,0.15,-0.34,-1.1,1.16
17.495569944381714,0.19,-0.17,-1.18,1.2
17.496257781982422,0.1,0.0,-1.35,1.35
17.504271030426025,-0.05,0.09,-1.47,1.47
17.514251947402954,-0.29,0.18,-1.38,1.42
17.52453088760376,-0.51,0.28,-1.06,1.2
17.545910835266113,-0.58,0.44,-0.63,0.96
17.546624898910522,-0.42,0.65,-0.34,0.84
17.554687023162842,-0.28,0.91,-0.23,0.97
17.564623832702637,-0.06,1.09,-0.2,1.1
17.574837923049927,0.26,1.2,-0.14,1.23
17.59517192840576,0.53,1.35,0.06,1.45
17.59585189819336,0.71,1.33,0.4,1.55
17.604869842529297,0.71,1.2,0.73,1.57
17.615121841430664,0.5,0.99,1.0,1.49
17.625138759613037,0.23,0.66,1.26,1.44
17.64601492881775,0.06,0.25,1.58,1.6
17.646713733673096,-0.04,-0.09,2.05,2.05
17.655248880386353,-0.04,-0.33,2.53,2.55
17.66537094116211,-0.59,0.01,2.96,3.01
17.67548394203186,-0.97,0.6,3.11,3.31
17.69536590576172,-0.97,0.99,2.94,3.25
17.696050882339478,-0.66,1.11,2.78,3.06
17.70561194419861,-0.28,1.22,2.94,3.19
17.715450763702393,0.33,1.28,3.36,3.61
17.725698947906494,1.18,1.22,3.91,4.26
17.746052742004395,1.88,0.79,4.47,4.91
17.746749877929688,2.16,0.14,4.82,5.28
17.755945920944214,1.78,-0.53,4.54,4.9
17.7662410736084,0.84,-1.28,3.83,4.12
17.77609896659851,-0.1,-2.1,2.96,3.63
17.79568099975586,-1.09,-2.57,1.95,3.4
17.796390056610107,-1.71,-2.58,1.01,3.25
17.806313037872314,-1.46,-2.48,0.26,2.88
17.81635284423828,-0.81,-2.33,-0.24,2.47
17.826515913009644,-0.19,-2.03,-0.52,2.1
17.845941066741943,0.56,-1.64,-0.38,1.77
17.84664297103882,1.2,-1.27,0.1,1.75
17.856599807739258,1.58,-1.12,0.63,2.03
17.866480827331543,1.62,-1.16,0.92,2.19
17.876786947250366,1.32,-1.29,0.76,1.99
17.895922899246216,0.72,-1.5,0.08,1.66
17.896650791168213,0.03,-1.74,-0.83,1.92
17.90693998336792,-0.42,-1.78,-1.67,2.47
17.916895866394043,-0.66,-1.7,-2.36,2.98
17.927944898605347,-0.76,-1.58,-2.87,3.36
17.945592880249023,-0.68,-1.38,-3.14,3.49
17.946913957595825,-0.35,-1.21,-3.14,3.38
17.957244873046875,-0.09,-0.93,-2.88,3.02
17.967144012451172,0.15,-0.68,-2.47,2.56
17.977385997772217,0.36,-0.46,-2.12,2.19
17.99510908126831,0.52,-0.24,-1.86,1.94
17.997244834899902,0.64,-0.14,-1.86,1.97
18.007572889328003,0.59,-0.09,-2.05,2.13
18.017643928527832,0.45,-0.14,-2.32,2.36
18.027798891067505,0.2,-0.24,-2.42,2.44
18.045482873916626,-0.11,-0.38,-2.19,2.22
18.047779083251953,-0.29,-0.57,-1.83,1.93
18.057878971099854,-0.38,-0.6,-1.51,1.66
18.06785488128662,-0.32,-0.56,-1.22,1.38
18.078070878982544,-0.11,-0.51,-0.97,1.1
18.09552001953125,-0.02,-0.51,-0.77,0.92
18.097952842712402,-0.03,-0.58,-0.62,0.84
18.108223915100098,-0.09,-0.61,-0.45,0.76
18.118330001831055,-0.22,-0.58,-0.29,0.68
18.1283597946167,-0.25,-0.46,-0.23,0.57
18.145326852798462,-0.14,-0.25,-0.26,0.38
18.14834499359131,-0.01,-0.08,-0.31,0.32
18.158552885055542,0.05,0.05,-0.27,0.27
18.168420791625977,0.02,0.13,-0.12,0.17
18.178607940673828,0.09,0.1,0.14,0.19
18.19479489326477,0.36,-0.1,0.45,0.58
18.198685884475708,0.54,-0.47,0.9,1.14
18.208839893341064,0.51,-0.92,1.56,1.88
18.218810081481934,0.11,-1.19,2.25,2.54
18.229047775268555,-0.73,-0.98,2.67,2.93
18.24533486366272,-1.4,-0.43,2.5,2.89
18.249642848968506,-1.53,0.31,1.76,2.35
18.25922203063965,-1.34,1.09,1.01,2.0
18.269086837768555,-0.79,1.62,0.76,1.95
18.279221057891846,-0.19,1.67,1.54,2.27
18.294869899749756,0.91,1.18,2.88,3.24
18.299560070037842,1.28,0.38,4.55,4.74
18.309606075286865,1.02,-1.01,5.91,6.08
18.319499015808105,0.46,-2.01,6.5,6.81
18.3296480178833,-0.13,-2.62,6.48,6.99
18.3455069065094,-0.52,-3.11,5.85,6.64
18.349606037139893,-0.94,-3.07,4.73,5.71
18.359875917434692,-1.05,-2.59,3.2,4.24
18.369910955429077,-1.02,-1.94,1.55,2.68
18.379985809326172,-1.0,-1.54,0.03,1.83
18.395076751708984,-0.9,-1.36,-1.11,1.97
18.399909019470215,-0.63,-1.37,-1.61,2.2
18.410078048706055,-0.37,-1.39,-1.26,1.91
18.420121908187866,-0.15,-1.65,-0.41,1.7
18.430256843566895,-0.1,-1.92,0.33,1.95
18.445037841796875,-0.07,-2.08,0.77,2.21
18.450212955474854,0.01,-2.14,0.79,2.28
18.460384845733643,0.13,-2.17,0.42,2.21
18.470537900924683,0.3,-2.21,-0.19,2.23
18.480559825897217,0.45,-2.23,-0.79,2.4
18.495452880859375,0.49,-2.21,-1.2,2.56
18.500563859939575,0.45,-2.13,-1.32,2.54
18.51075506210327,0.44,-2.01,-1.16,2.36
18.520826816558838,0.49,-1.88,-0.85,2.12
18.53096294403076,0.6,-1.79,-0.48,1.94
18.545454025268555,0.66,-1.75,-0.17,1.87
18.551063060760498,0.69,-1.75,0.06,1.88
18.561151027679443,0.71,-1.76,0.21,1.9
18.571157932281494,0.62,-1.79,0.29,1.91
18.581281900405884,0.44,-1.82,0.23,1.88
18.59559202194214,0.32,-1.78,-0.03,1.8
18.60138177871704,0.31,-1.65,-0.47,1.74
18.611423015594482,0.37,-1.52,-0.85,1.78
18.621497869491577,0.43,-1.36,-1.0,1.74
18.63165283203125,0.42,-1.26,-0.93,1.62
18.64652395248413,0.32,-1.19,-0.65,1.39
18.651558876037598,0.24,-1.14,-0.32,1.2
18.66172695159912,0.12,-1.15,-0.04,1.15
18.671872854232788,0.03,-1.18,0.14,1.18
18.68198585510254,-0.08,-1.21,0.22,1.23
18.69645595550537,-0.3,-1.12,0.24,1.18
18.70192790031433,-0.41,-1.02,0.17,1.11
18.712060928344727,-0.34,-0.9,0.06,0.96
18.722190856933594,-0.16,-0.78,-0.04,0.79
18.73282790184021,-0.04,-0.7,0.03,0.7
18.742417812347412,0.12,-0.71,0.31,0.78
18.762701988220215,0.09,-0.74,0.67,1.0
18.76338291168213,-0.15,-0.78,1.03,1.3
18.772575855255127,-0.34,-0.78,1.34,1.58
18.782728910446167,-0.29,-0.79,1.47,1.69
18.792805910110474,-0.2,-0.76,1.34,1.55
18.81213092803955,-0.08,-0.73,0.97,1.21
18.812849044799805,0.03,-0.71,0.53,0.88
18.822803020477295,0.09,-0.71,0.19,0.74
18.83273983001709,0.17,-0.72,0.03,0.74
18.84305191040039,0.27,-0.71,-0.04,0.76
18.86170792579651,0.31,-0.66,-0.25,0.77
18.86304807662964,0.29,-0.58,-0.48,0.8
18.87311601638794,0.3,-0.51,-0.66,0.88
18.883036851882935,0.25,-0.44,-0.66,0.83
18.89338779449463,0.17,-0.43,-0.49,0.67
18.912017822265625,0.02,-0.41,-0.32,0.52
18.91322374343872,-0.05,-0.41,-0.21,0.46
18.923577785491943,-0.03,-0.44,-0.13,0.45
18.933438777923584,0.03,-0.51,-0.04,0.51
18.943670749664307,0.09,-0.6,0.0,0.6
18.96202278137207,0.04,-0.67,0.02,0.67
18.96378183364868,-0.05,-0.75,0.08,0.75
18.973801851272583,-0.11,-0.76,0.2,0.79
18.983728885650635,-0.11,-0.69,0.33,0.77
18.9940447807312,-0.02,-0.55,0.38,0.66
19.012134075164795,0.1,-0.35,0.36,0.51
19.0138897895813,0.22,-0.18,0.32,0.42
19.024184942245483,0.21,-0.09,0.3,0.37
19.034093856811523,0.1,-0.06,0.35,0.36
19.04436683654785,-0.02,-0.11,0.44,0.45
19.061611890792847,-0.09,-0.14,0.46,0.48
19.06427001953125,-0.07,-0.11,0.3,0.32
19.074529886245728,-0.06,-0.01,0.03,0.06
19.084353923797607,0.0,0.1,-0.14,0.17
19.094573974609375,0.1,0.15,-0.12,0.21
19.112196922302246,0.1,0.23,0.01,0.25
19.114579916000366,-0.02,0.19,0.2,0.27
19.124820947647095,-0.18,0.03,0.38,0.42
19.1347017288208,-0.31,-0.11,0.51,0.6
19.14492702484131,-0.36,-0.25,0.5,0.66
19.161500930786133,-0.39,-0.33,0.43,0.66
19.164995908737183,-0.37,-0.36,0.32,0.6
19.175169944763184,-0.25,-0.33,0.21,0.46
19.185154914855957,-0.14,-0.26,0.05,0.29
19.19529891014099,-0.02,-0.09,-0.13,0.15
19.21189594268799,0.12,0.07,-0.25,0.28
19.215314865112305,0.21,0.18,-0.29,0.4
19.225512981414795,0.26,0.23,-0.18,0.39
19.235395908355713,0.22,0.16,0.0,0.27
19.245657920837402,0.03,0.05,0.14,0.15
19.261609077453613,-0.11,-0.03,0.26,0.28
19.266128063201904,-0.15,-0.07,0.29,0.33
19.27585196495056,-0.11,-0.01,0.1,0.14
19.285762786865234,-0.04,0.09,-0.2,0.22
19.295931816101074,0.07,0.24,-0.35,0.43
19.312177896499634,0.11,0.33,-0.36,0.5
19.316182851791382,0.09,0.37,-0.27,0.46
19.32616376876831,0.09,0.32,-0.06,0.33
19.33613395690918,0.02,0.25,0.17,0.3
19.346251964569092,-0.11,0.18,0.3,0.36
19.362122058868408,-0.21,0.14,0.23,0.34
19.366252899169922,-0.24,0.12,0.09,0.28
19.376537799835205,-0.17,0.16,-0.13,0.26
19.386507034301758,-0.01,0.28,-0.32,0.42
19.39667296409607,0.1,0.35,-0.37,0.51
19.411717891693115,0.13,0.41,-0.39,0.58
19.416639804840088,0.07,0.47,-0.38,0.6
19.42672085762024,0.07,0.51,-0.4,0.65
19.436788082122803,0.09,0.57,-0.46,0.73
19.44686794281006,0.12,0.58,-0.52,0.78
19.461490869522095,0.04,0.55,-0.49,0.73
19.46679186820984,-0.1,0.47,-0.36,0.6
19.476952075958252,-0.2,0.41,-0.21,0.5
19.48720073699951,-0.19,0.43,-0.14,0.49
19.497276782989502,-0.09,0.48,-0.21,0.53
19.511573791503906,0.02,0.6,-0.31,0.67
19.517223834991455,0.05,0.74,-0.44,0.86
19.52739906311035,0.04,0.83,-0.53,0.98
19.537564754486084,-0.02,0.86,-0.48,0.98
19.547636032104492,-0.15,0.83,-0.27,0.88
19.562123775482178,-0.31,0.77,-0.02,0.83
19.56769895553589,-0.39,0.74,0.09,0.84
19.577799797058105,-0.38,0.75,0.04,0.84
19.587947845458984,-0.33,0.83,-0.04,0.89
19.59784698486328,-0.15,0.94,-0.14,0.96
19.611961841583252,0.06,1.07,-0.23,1.09
19.618011951446533,0.15,1.12,-0.33,1.17
19.627996921539307,0.1,1.12,-0.43,1.2
19.638157844543457,-0.01,1.1,-0.5,1.2
19.648251056671143,-0.1,1.06,-0.56,1.2
19.661540985107422,-0.11,1.03,-0.62,1.2
19.66828680038452,-0.1,0.99,-0.62,1.17
19.678269863128662,-0.1,0.98,-0.52,1.11
19.688440799713135,-0.1,0.95,-0.33,1.01
19.698518753051758,-0.12,0.88,-0.16,0.9
19.712768077850342,-0.16,0.83,-0.09,0.85
19.718620777130127,-0.19,0.82,-0.16,0.85
19.728621006011963,-0.15,0.89,-0.36,0.97
19.73874807357788,-0.06,1.08,-0.65,1.26
19.76238203048706,0.05,1.19,-0.9,1.49
19.763082027435303,0.01,1.19,-0.91,1.49
19.768971920013428,-0.21,1.15,-0.68,1.35
19.77903699874878,-0.34,1.07,-0.44,1.2
19.789180755615234,-0.41,1.03,-0.34,1.15
19.812208890914917,-0.39,1.08,-0.43,1.22
19.812917947769165,-0.29,1.17,-0.62,1.35
19.819307804107666,-0.19,1.27,-0.84,1.53
19.82924795150757,0.05,1.34,-1.02,1.68
19.839480876922607,0.29,1.39,-1.16,1.83
19.861243963241577,0.42,1.37,-1.12,1.81
19.86191701889038,0.38,1.26,-0.96,1.62
19.869554042816162,0.24,1.1,-0.74,1.34
19.879677772521973,0.12,0.95,-0.6,1.12
19.88986873626709,-0.02,0.89,-0.62,1.08
19.911321878433228,-0.07,0.97,-0.84,1.28
19.912023067474365,0.0,1.17,-1.27,1.72
19.92031693458557,0.12,1.43,-1.79,2.29
19.92998504638672,0.24,1.58,-2.23,2.74
19.94020175933838,0.45,1.61,-2.48,2.99
19.961545944213867,0.56,1.64,-2.47,3.01
19.96221685409546,0.53,1.56,-2.11,2.67
19.970205783843994,0.46,1.32,-1.56,2.09
19.980283737182617,0.43,1.16,-1.04,1.61
19.990339756011963,0.38,1.13,-0.76,1.41
20.011436939239502,0.32,1.14,-0.73,1.39
20.012109756469727,0.26,1.34,-0.88,1.62
20.020610809326172,0.3,1.58,-1.07,1.93
20.03062891960144,0.36,1.73,-1.3,2.19
20.040804862976074,0.47,1.8,-1.56,2.42
20.06076192855835,0.41,1.88,-1.71,2.57
20.061429977416992,0.24,1.82,-1.68,2.48
20.070950031280518,-0.03,1.75,-1.51,2.31
20.080979824066162,-0.23,1.79,-1.11,2.11
20.09110403060913,-0.17,1.85,-0.74,1.99
20.111319065093994,-0.1,1.94,-0.63,2.04
20.11200785636902,-0.06,2.04,-0.76,2.17
20.121213912963867,0.0,2.11,-1.07,2.36
20.131419897079468,0.09,2.21,-1.43,2.63
20.141530990600586,0.2,2.32,-1.8,2.94
20.162006855010986,0.38,2.48,-2.15,3.3
20.16268491744995,0.4,2.74,-2.44,3.69
20.17151403427124,0.28,2.94,-2.36,3.78
20.181598901748657,0.15,3.0,-1.84,3.52
20.19177484512329,0.04,3.02,-1.1,3.21
20.211658000946045,0.06,3.07,-0.46,3.1
20.212320804595947,0.23,3.07,-0.1,3.08
20.22213077545166,0.32,3.22,0.02,3.23
20.231948852539062,0.35,3.51,-0.15,3.53
20.242166996002197,0.26,3.89,-0.54,3.93
20.262887001037598,-0.01,4.3,-0.94,4.4
20.263590812683105,-0.22,4.57,-1.08,4.7
20.272335052490234,-0.51,4.77,-0.8,4.86
20.28274893760681,-0.67,4.6,0.04,4.64
20.292496919631958,-0.67,4.29,1.27,4.52
20.312635898590088,-0.68,4.08,2.31,4.73
20.313318729400635,-0.78,4.01,3.01,5.07
20.32261896133423,-0.84,4.15,3.28,5.35
20.33277702331543,-0.91,4.45,2.93,5.4
20.342849731445312,-0.58,4.77,2.25,5.3
20.36251187324524,0.03,4.67,1.77,4.99
20.363205909729004,0.33,4.34,1.5,4.6
20.372920036315918,0.31,3.99,1.58,4.3
20.38284397125244,0.04,3.65,2.07,4.19
20.393198013305664,-0.28,3.6,2.69,4.5
20.412070751190186,-0.34,3.68,2.57,4.5
20.413049936294556,-0.19,3.71,1.42,3.97
20.423243045806885,0.37,3.71,-0.11,3.73
20.433321952819824,1.07,3.43,-0.94,3.71
20.443461894989014,1.29,3.08,-0.7,3.41
20.46205997467041,1.23,2.37,0.6,2.73
20.463337898254395,0.54,1.33,2.53,2.9
20.473521947860718,-0.7,0.04,4.16,4.21
20.483462810516357,-1.64,-0.97,4.93,5.28
20.493721961975098,-2.12,-1.38,4.93,5.54
20.51209783554077,-1.9,-1.26,4.46,5.0
20.513691902160645,-1.16,-0.92,3.86,4.13
20.52395987510681,-0.9,-0.41,3.58,3.71
20.533957958221436,-1.64,-0.07,3.77,4.11
20.544031858444214,-2.9,-0.01,3.95,4.9
20.561956882476807,-3.93,0.04,3.97,5.58
20.563995838165283,-4.05,0.52,4.09,5.77
20.57423686981201,-3.15,1.5,4.16,5.42
20.584189891815186,-1.94,2.75,4.09,5.29
20.59433603286743,-1.12,3.97,3.99,5.73
20.61165475845337,-0.7,4.92,3.56,6.11
20.614330768585205,-0.68,5.66,2.8,6.35
20.624556064605713,-0.54,6.06,2.12,6.44
20.63449788093567,-0.58,6.07,2.01,6.42
20.6446590423584,-0.73,5.32,2.36,5.86
20.661404848098755,-1.17,4.28,3.06,5.38
20.664735794067383,-1.44,2.93,3.9,5.08
20.67488193511963,-1.33,1.8,4.31,4.85
20.684882879257202,-0.94,1.04,3.89,4.13
20.695021867752075,-0.27,0.47,2.6,2.65
20.71199607849121,0.43,0.4,0.93,1.09
20.715085983276367,0.98,0.99,-0.82,1.61
20.725264072418213,1.53,1.65,-2.73,3.53
20.735244750976562,1.88,1.93,-4.68,5.4
20.745309829711914,2.28,1.61,-6.2,6.79
20.762507915496826,2.42,0.85,-6.91,7.37
20.766051769256592,1.69,-0.02,-6.61,6.82
20.775568962097168,0.79,-0.72,-5.63,5.73
20.785747051239014,0.46,-1.18,-4.76,4.92
20.795716762542725,0.51,-1.2,-4.37,4.56
20.812131881713867,1.32,-0.98,-4.54,4.82
20.816037893295288,2.95,-0.41,-5.16,5.95
20.82587194442749,4.57,-0.04,-5.41,7.08
20.835869789123535,5.37,-0.38,-5.01,7.35
20.846008777618408,5.07,-1.26,-3.97,6.56
20.862128734588623,3.67,-2.25,-2.44,4.94
20.866052865982056,0.74,-2.2,-1.28,2.65
20.87624502182007,-1.64,-1.5,-0.57,2.29
20.88631582260132,-1.18,-1.32,-0.4,1.81
20.896318912506104,0.51,-0.9,-0.52,1.15
20.91209602355957,1.44,-0.5,0.33,1.55
20.916334867477417,2.1,-0.81,2.41,3.29
20.92653179168701,1.56,-1.72,5.14,5.64
20.93673586845398,-0.3,-2.37,7.21,7.59
20.946770906448364,-2.5,-1.78,8.08,8.64
20.962260961532593,-3.35,-0.94,7.56,8.32
20.96665096282959,-2.37,0.77,5.76,6.27
20.976821899414062,-0.75,2.93,3.66,4.74
20.986933946609497,1.02,4.12,2.13,4.74
20.99704599380493,2.2,5.03,1.09,5.59
21.01185393333435,2.81,5.27,0.22,5.97
21.01696491241455,2.68,4.69,-0.62,5.43
21.027216911315918,1.99,3.76,-1.59,4.54
21.037428855895996,1.31,2.79,-2.51,3.97
21.047363758087158,0.83,1.68,-3.43,3.9
21.06253480911255,0.62,1.02,-3.98,4.15
21.067352771759033,1.03,0.7,-4.08,4.26
21.07744073867798,0.77,1.16,-4.0,4.23
21.087636947631836,0.59,1.52,-4.1,4.41
21.097578048706055,0.61,1.52,-4.18,4.48
21.113074779510498,0.23,1.28,-4.3,4.49
21.117573738098145,-0.31,0.92,-4.46,4.56
21.127737998962402,-0.74,0.39,-3.69,3.78
21.13792395591736,-1.02,0.01,-1.96,2.2
21.147958755493164,-1.42,0.02,-0.04,1.42
21.163053035736084,-1.69,0.04,1.56,2.3
21.168125867843628,-1.75,0.3,2.1,2.75
21.178120851516724,-1.74,0.89,1.12,2.25
21.18828582763672,-1.66,0.46,-0.22,1.73
21.198328018188477,-2.45,-1.03,-0.71,2.75
21.213998794555664,-5.57,-1.63,0.29,5.81
21.218440055847168,-8.19,-1.14,1.79,8.46
21.228503942489624,-7.56,-0.88,2.59,8.03
21.238636016845703,-4.49,-0.23,2.39,5.09
21.249180793762207,-1.58,1.21,2.18,2.95
21.258779048919678,1.6,2.17,2.2,3.47
21.2796368598938,3.78,2.77,2.36,5.24
21.280312061309814,3.32,3.13,2.87,5.39
21.28894281387329,1.31,2.31,3.75,4.59
21.299344062805176,-0.91,1.42,4.45,4.75
21.309112071990967,-1.64,1.13,4.69,5.09
21.329122066497803,-1.6,0.79,4.38,4.72
21.329818964004517,-1.81,-0.11,3.75,4.16
21.33920192718506,-2.12,-0.98,3.03,3.82
21.34929084777832,-2.14,-1.56,2.06,3.35
21.35943293571472,-1.55,-1.5,0.96,2.36
21.378368854522705,-0.84,-0.93,0.01,1.25
21.379350900650024,0.02,-0.37,-0.76,0.84
21.389628887176514,0.83,-0.01,-1.63,1.82
21.399524927139282,1.05,0.04,-2.56,2.76
21.40976095199585,1.44,-0.24,-3.21,3.52
21.428420066833496,2.15,-0.49,-3.31,3.97
21.42971897125244,2.33,-0.97,-3.09,3.98
21.439913749694824,1.56,-1.63,-3.17,3.89
21.44971990585327,0.65,-2.1,-3.85,4.43
21.460011959075928,-0.23,-2.27,-4.77,5.28
21.478741884231567,-0.18,-1.81,-5.62,5.9
21.479862928390503,1.05,-0.81,-6.15,6.29
21.490190029144287,2.67,0.07,-6.46,6.99
21.500077962875366,4.34,0.25,-6.21,7.58
21.510318756103516,5.89,-0.37,-5.39,7.99
21.52917194366455,6.27,-1.87,-4.16,7.75
21.530293941497803,5.2,-4.1,-2.52,7.08
21.540536880493164,3.37,-6.16,-1.09,7.1
21.550479888916016,1.12,-6.98,0.08,7.06
21.560667991638184,-1.59,-5.85,1.15,6.17
21.57876205444336,-2.34,-3.38,1.81,4.49
21.580708026885986,0.61,-1.46,1.59,2.24
21.590882778167725,3.27,0.06,1.12,3.45
21.600924015045166,2.76,2.04,0.45,3.46
21.61103105545044,0.38,2.62,-0.74,2.74
21.628752946853638,-0.85,0.78,-1.34,1.76
21.630936861038208,-1.8,-1.39,0.03,2.27
21.64120388031006,-1.6,-3.54,3.46,5.2
21.651129961013794,-0.57,-5.22,7.52,9.17
21.661303997039795,-0.79,-5.81,10.43,11.96
21.678228855133057,-1.43,-5.9,11.15,12.69
21.68137788772583,-1.99,-4.95,10.3,11.59
21.691606044769287,-1.69,-2.79,8.36,8.97
21.7014217376709,-0.11,-0.2,5.36,5.36
21.711630821228027,2.27,1.48,2.16,3.46
21.728271007537842,3.35,2.68,-0.61,4.33
21.73168706893921,3.47,3.13,-2.72,5.4
21.741864919662476,3.21,2.39,-3.95,5.62
21.75174379348755,2.13,1.12,-3.94,4.61
21.762146949768066,0.43,-0.08,-3.08,3.11
21.778542041778564,-0.99,-1.08,-2.49,2.88
21.78267192840576,-2.05,-1.21,-2.85,3.71
21.792237758636475,-2.11,-0.84,-3.94,4.54
21.80215096473694,-1.17,-0.4,-5.22,5.36
21.81222677230835,-0.17,0.21,-5.91,5.91
21.82820177078247,0.61,0.61,-5.82,5.88
21.832618951797485,0.67,0.92,-5.38,5.49
21.842455863952637,0.22,0.88,-4.74,4.82
21.852498054504395,-0.5,0.27,-4.22,4.25
21.86262607574463,-0.83,-0.64,-3.66,3.8
21.877505779266357,-0.7,-1.17,-2.39,2.75
21.882579803466797,-0.06,-2.1,-0.34,2.12
21.892841815948486,0.72,-3.92,2.05,4.48
21.902869939804077,-0.08,-5.92,4.29,7.31
21.913026809692383,-3.36,-6.66,6.18,9.68
21.928098917007446,-7.35,-5.8,7.33,11.89
21.933055877685547,-8.89,-4.59,7.18,12.31
21.943285942077637,-7.29,-2.61,6.11,9.86
21.953221797943115,-2.51,-1.22,5.39,6.06
21.96332883834839,2.47,-0.31,5.44,5.98
21.978221893310547,5.61,0.01,5.93,8.16
21.983218908309937,5.88,-1.52,6.84,9.14
21.993463039398193,2.81,-4.48,7.28,8.99
22.003659963607788,-1.5,-7.06,6.91,9.99
22.01360273361206,-4.75,-8.92,6.92,12.24
22.027633905410767,-5.77,-9.81,6.94,13.33
22.03364586830139,-5.14,-9.09,6.35,12.22
22.043819904327393,-2.94,-7.87,4.65,9.6
22.05386781692505,-0.45,-6.16,2.48,6.65
22.063957929611206,1.42,-4.36,0.44,4.6
22.077730894088745,1.88,-2.45,-1.24,3.32
22.08395290374756,1.53,-0.75,-2.37,2.91
22.09409475326538,1.52,0.03,-3.04,3.39
22.104217052459717,1.75,0.02,-3.41,3.83
22.114251852035522,1.65,-0.44,-3.47,3.86
22.127728939056396,1.17,-1.23,-3.19,3.61
22.134335041046143,0.58,-2.12,-2.56,3.37
22.14443588256836,0.16,-2.77,-2.01,3.42
22.15447998046875,-0.03,-3.3,-2.11,3.91
22.164642810821533,0.5,-3.64,-2.79,4.61
22.177659034729004,1.83,-3.6,-3.64,5.43
22.18468475341797,3.05,-3.7,-3.7,6.05
22.194839000701904,3.13,-4.18,-2.71,5.88
22.204835891723633,1.93,-5.06,-0.72,5.46
22.21493887901306,0.21,-5.58,1.47,5.77
22.228589057922363,-1.07,-4.8,3.33,5.93
22.235150814056396,0.06,-4.29,4.78,6.42
22.24496078491211,2.39,-3.62,5.85,7.28
22.255152940750122,3.87,-2.28,6.58,7.96
22.278286933898926,3.17,-1.12,6.43,7.25
22.278965950012207,1.54,-1.05,5.59,5.89
22.285263061523438,0.78,-1.72,4.88,5.23
22.295331954956055,0.3,-2.38,4.73,5.3
22.3054358959198,0.38,-3.34,4.71,5.78
22.328770875930786,0.18,-4.01,4.63,6.12
22.329463958740234,0.01,-4.39,4.32,6.15
22.3355450630188,-0.52,-4.27,3.78,5.72
22.345770835876465,-0.87,-4.09,3.2,5.26
22.355848789215088,-0.79,-3.95,2.54,4.76
22.378479957580566,-0.53,-3.61,2.24,4.28
22.37918496131897,0.05,-2.93,2.33,3.74
22.385904788970947,0.66,-2.3,2.41,3.39
22.396103858947754,1.44,-1.82,2.26,3.23
22.406169891357422,1.72,-1.02,1.92,2.77
22.42830491065979,2.13,-0.75,1.29,2.6
22.429014921188354,2.2,-0.94,0.58,2.46
22.43639087677002,1.49,-1.32,0.08,1.99
22.446374893188477,0.89,-1.83,-0.21,2.04
22.45654582977295,0.31,-2.21,-0.39,2.26
22.478333950042725,-0.29,-2.56,-0.68,2.66
22.479045867919922,-0.89,-2.72,-1.19,3.09
22.486698865890503,-1.21,-2.94,-1.79,3.64
22.49674391746521,-1.22,-3.17,-2.05,3.96
22.506882905960083,-1.02,-3.02,-1.58,3.55
22.528350830078125,-0.53,-2.85,-0.74,2.99
22.52894878387451,-0.24,-2.56,-0.11,2.57
22.537049770355225,-0.19,-2.35,0.15,2.36
22.547010898590088,-0.49,-2.28,-0.05,2.33
22.557223796844482,-0.67,-2.26,-0.56,2.42
22.578243732452393,-0.3,-2.26,-1.24,2.59
22.57892894744873,0.13,-2.1,-1.67,2.68
22.58730387687683,0.54,-1.63,-1.82,2.5
22.59736204147339,1.03,-1.12,-1.62,2.22
22.607515811920166,1.55,-0.61,-1.15,2.02
22.628126859664917,1.91,-0.26,-0.71,2.05
22.62873077392578,2.06,-0.07,-0.44,2.1
22.63767695426941,1.8,-0.03,-0.5,1.86
22.64763307571411,1.23,-0.15,-0.76,1.45
22.657835006713867,0.78,-0.39,-1.12,1.41
22.677591800689697,0.66,-0.56,-1.44,1.68
22.6782648563385,0.94,-0.74,-1.64,2.02
22.687964916229248,1.26,-0.92,-1.52,2.17
22.69798994064331,1.33,-1.29,-0.88,2.05
22.708160877227783,1.21,-1.85,0.07,2.21
22.72770595550537,0.67,-2.18,0.96,2.47
22.728330850601196,-0.06,-2.58,1.36,2.91
22.738380908966064,-0.76,-2.83,1.06,3.11
22.748350858688354,-1.44,-2.79,0.57,3.19
22.758512020111084,-1.32,-2.81,-0.03,3.1
22.777983903884888,-0.65,-2.51,-0.55,2.65
22.778620958328247,0.14,-2.24,-0.77,2.37
22.78870391845703,0.94,-2.31,-0.57,2.55
22.799067974090576,1.41,-2.28,0.05,2.68
22.808722972869873,1.22,-2.19,0.98,2.69
22.828120946884155,0.42,-2.15,1.51,2.66
22.828757762908936,-0.47,-1.94,1.17,2.31
22.83898401260376,-0.98,-1.6,0.32,1.9
22.849095821380615,-0.99,-1.28,-0.6,1.72
22.85920286178589,-0.72,-0.9,-1.16,1.63
22.87836790084839,-0.27,-0.64,-1.37,1.53
22.879106998443604,0.23,-0.56,-1.12,1.27
22.889328956604004,0.71,-0.59,-0.57,1.08
22.899208068847656,0.85,-0.74,0.08,1.12
22.90956974029541,0.52,-1.05,0.71,1.37
22.92816185951233,0.07,-1.43,1.04,1.76
22.929378986358643,-0.52,-1.66,1.06,2.03
22.939631938934326,-0.99,-1.82,0.82,2.22
22.949594020843506,-1.04,-1.77,0.51,2.11
22.95996904373169,-0.81,-1.56,0.18,1.76
22.978057861328125,-0.51,-1.34,-0.06,1.43
22.97971773147583,-0.2,-1.1,-0.28,1.15
22.990028858184814,0.24,-0.76,-0.46,0.92
23.00004482269287,0.69,-0.35,-0.33,0.84
23.010149002075195,0.89,-0.06,0.07,0.89
23.0282199382782,0.82,-0.11,0.51,0.97
23.030065059661865,0.37,-0.3,0.92,1.03
23.04037380218506,-0.19,-0.64,1.06,1.25
23.05023193359375,-0.66,-0.93,0.88,1.44
23.060626983642578,-0.9,-0.98,0.56,1.44
23.078053951263428,-0.74,-0.93,0.26,1.21
23.08040475845337,-0.4,-0.71,0.03,0.81
23.090593814849854,0.1,-0.51,-0.04,0.52
23.100536823272705,0.68,-0.35,0.26,0.8
23.110777854919434,0.78,-0.24,0.76,1.11
23.128063917160034,0.45,-0.39,1.07,1.22
23.130719900131226,-0.06,-0.55,0.96,1.1
23.14095401763916,-0.42,-0.64,0.68,1.02
23.15099287033081,-0.61,-0.73,0.35,1.01
23.161216735839844,-0.61,-0.67,0.05,0.9
23.178823947906494,-0.34,-0.44,0.0,0.55
23.181153774261475,-0.04,-0.23,0.11,0.25
23.191370010375977,0.21,-0.08,0.17,0.28
23.20125675201416,0.4,0.14,0.12,0.44
23.2114577293396,0.58,0.25,0.16,0.65
23.22871208190918,0.41,0.21,0.27,0.53
23.23148488998413,0.01,0.05,0.35,0.35
23.24174404144287,-0.27,-0.17,0.34,0.46
23.251707077026367,-0.53,-0.3,0.29,0.67
23.261929035186768,-0.64,-0.43,0.22,0.8
23.278836965560913,-0.62,-0.51,0.21,0.82
23.28249192237854,-0.37,-0.5,0.2,0.65
23.291977882385254,-0.03,-0.33,0.19,0.38
23.301966905593872,0.35,-0.18,0.26,0.47
23.312115907669067,0.5,-0.07,0.37,0.62
23.32807207107544,0.33,-0.1,0.45,0.56
23.332510948181152,-0.04,-0.28,0.43,0.51
23.342429876327515,-0.43,-0.47,0.37,0.73
23.35241389274597,-0.73,-0.53,0.31,0.95
23.362416744232178,-0.67,-0.44,0.29,0.85
23.378557920455933,-0.2,-0.17,0.27,0.37
23.382601737976074,0.09,0.17,0.14,0.23
23.392734050750732,0.36,0.36,-0.16,0.53
23.402710914611816,0.57,0.53,-0.39,0.87
23.412813901901245,0.55,0.62,-0.31,0.88
23.428092002868652,0.36,0.44,-0.1,0.57
23.43272089958191,0.02,0.25,0.01,0.25
23.4429988861084,-0.2,0.06,-0.01,0.2
23.453022003173828,-0.25,-0.16,-0.03,0.29
23.463021755218506,-0.3,-0.3,-0.08,0.43
23.47793483734131,-0.26,-0.33,-0.12,0.43
23.483049869537354,-0.15,-0.28,-0.23,0.39
23.493183851242065,-0.02,-0.17,-0.48,0.5
23.50330686569214,0.22,-0.02,-0.68,0.71
23.5133957862854,0.37,0.08,-0.61,0.71
23.527958869934082,0.33,0.01,-0.39,0.51
23.5333309173584,0.12,-0.19,-0.26,0.34
23.543575763702393,-0.19,-0.38,-0.31,0.52
23.55355191230774,-0.36,-0.42,-0.41,0.68
23.563715934753418,-0.4,-0.28,-0.5,0.69
23.578290939331055,-0.33,0.03,-0.59,0.67
23.583618879318237,-0.1,0.33,-0.71,0.78
23.593742847442627,0.04,0.73,-0.77,1.06
23.603918075561523,0.09,1.0,-0.6,1.16
23.613979816436768,-0.05,1.02,-0.21,1.04
23.627573013305664,-0.4,0.96,0.15,1.05
23.6340548992157,-0.78,0.88,0.3,1.21
23.644129753112793,-0.91,0.88,0.26,1.29
23.654228925704956,-0.67,1.07,0.09,1.26
23.664272785186768,-0.4,1.42,-0.05,1.47
23.678847789764404,-0.19,1.7,-0.13,1.71
23.6844699382782,-0.02,1.79,-0.3,1.81
23.694447994232178,-0.03,1.73,-0.58,1.82
23.704508781433105,-0.09,1.46,-0.84,1.68
23.71467685699463,-0.13,1.12,-1.03,1.52
23.729591846466064,-0.23,0.89,-1.03,1.38
23.7347149848938,-0.36,0.75,-0.98,1.28
23.74484395980835,-0.47,0.67,-1.12,1.38
23.755236864089966,-0.39,0.72,-1.37,1.59
23.765095949172974,-0.16,1.02,-1.47,1.79
23.78067684173584,0.21,1.27,-1.26,1.8
23.78504991531372,0.37,1.3,-0.87,1.6
23.79514980316162,0.2,1.21,-0.45,1.3
23.80534791946411,-0.09,1.11,-0.22,1.13
23.81574773788452,-0.48,1.08,-0.27,1.21
23.825400829315186,-0.78,1.04,-0.49,1.38
23.845026969909668,-0.79,1.05,-0.79,1.53
23.845706939697266,-0.54,1.22,-1.07,1.71
23.855473041534424,-0.21,1.37,-1.15,1.8
23.865769863128662,0.04,1.41,-0.98,1.71
23.87574791908264,0.18,1.48,-0.66,1.63
23.89475679397583,0.21,1.52,-0.23,1.55
23.895610809326172,0.1,1.46,0.14,1.47
23.905981063842773,-0.13,1.41,0.31,1.44
23.915804862976074,-0.33,1.17,0.35,1.26
23.926132917404175,-0.29,1.0,0.2,1.06
23.944612979888916,0.12,0.9,0.06,0.9
23.94600772857666,0.48,0.79,0.16,0.93
23.956142902374268,0.57,0.63,0.51,0.99
23.966136932373047,0.26,0.72,0.96,1.22
23.976504802703857,-0.17,1.05,1.34,1.71
23.993992805480957,-0.52,1.47,1.61,2.24
23.996397018432617,-0.59,1.73,1.82,2.57
24.00651979446411,-0.12,1.38,2.18,2.58
24.01644277572632,0.15,0.86,2.88,3.0
24.026710987091064,0.28,0.07,3.7,3.71
24.04445195198059,0.13,-0.82,4.34,4.41
24.04666495323181,-0.2,-1.53,4.46,4.71
24.056822776794434,-0.36,-1.93,3.95,4.41
24.066755771636963,-0.23,-2.0,3.03,3.63
24.07704496383667,-0.13,-1.61,1.96,2.53
24.09429693222046,0.18,-1.21,1.11,1.65
24.096981048583984,0.51,-0.85,0.4,1.06
24.107274055480957,0.86,-0.37,-0.16,0.94
24.117212772369385,1.35,0.02,-0.48,1.43
24.12737274169922,1.77,0.31,-0.51,1.86
24.144603729248047,2.07,0.37,-0.44,2.14
24.147379875183105,1.96,0.3,-0.39,2.02
24.157471895217896,1.6,0.02,-0.49,1.67
24.167616844177246,1.23,-0.42,-0.69,1.47
24.17798376083374,0.93,-0.8,-0.84,1.48
24.19511389732361,0.57,-1.04,-0.89,1.48
24.197731971740723,0.2,-1.02,-0.9,1.37
24.20795488357544,-0.01,-0.89,-0.85,1.23
24.21798801422119,-0.09,-0.73,-0.79,1.07
24.228075981140137,-0.06,-0.56,-0.72,0.91
24.245298862457275,0.04,-0.4,-0.49,0.63
24.248117923736572,0.15,-0.37,-0.24,0.46
24.258172035217285,0.16,-0.43,-0.18,0.49
24.268380880355835,0.1,-0.48,-0.16,0.51
24.278360843658447,0.02,-0.47,-0.15,0.49
24.29530096054077,-0.09,-0.4,-0.13,0.43
24.29908585548401,-0.18,-0.32,-0.13,0.38
24.308640003204346,-0.03,-0.29,-0.24,0.37
24.318619966506958,0.11,-0.07,-0.45,0.46
24.328754901885986,0.24,0.11,-0.63,0.68
24.34557580947876,0.25,0.17,-0.8,0.85
24.349048852920532,0.14,0.28,-0.98,1.02
24.358890056610107,0.13,0.32,-1.23,1.27
24.368985891342163,0.21,0.42,-1.49,1.56
24.379097938537598,0.37,0.73,-1.71,1.89
24.394694805145264,0.51,0.87,-1.78,2.04
24.399162769317627,0.35,0.8,-1.44,1.68
24.409378051757812,0.26,0.64,-0.96,1.18
24.419429779052734,0.27,0.53,-0.66,0.88
24.429483890533447,0.39,0.42,-0.43,0.71
24.44498896598816,0.44,0.37,-0.07,0.57
24.449392795562744,0.33,0.22,0.29,0.49
24.459572792053223,0.2,0.06,0.5,0.54
24.46973991394043,0.16,-0.05,0.34,0.37
24.479622840881348,0.07,0.06,-0.05,0.1
24.49522590637207,-0.04,0.16,-0.44,0.46
24.49967098236084,-0.16,0.17,-0.52,0.57
24.509854793548584,-0.29,0.18,-0.35,0.48
24.52001190185547,-0.23,0.22,-0.2,0.37
24.530021905899048,-0.05,0.41,-0.1,0.42
24.544978857040405,0.15,0.68,0.0,0.69
24.5502347946167,0.15,0.85,0.14,0.87
24.560224056243896,0.16,0.83,0.27,0.88
24.57036590576172,0.26,0.8,0.26,0.88
24.58039689064026,0.23,0.82,0.14,0.86
24.5953049659729,0.13,0.7,0.06,0.71
24.600475788116455,-0.12,0.68,0.25,0.73
24.61053991317749,-0.55,0.9,0.64,1.23
24.620676040649414,-0.83,1.19,0.94,1.72
24.63069987297058,-0.81,1.39,1.0,1.89
24.645404815673828,-0.43,1.38,1.03,1.77
24.650949001312256,0.0,1.3,1.29,1.83
24.660786867141724,0.28,1.12,1.88,2.2
24.67090392112732,0.39,0.64,2.56,2.66
24.680968761444092,0.15,0.16,3.09,3.09
24.694151878356934,-0.03,-0.33,3.26,3.27
24.70102596282959,-0.05,-0.83,2.96,3.07
24.711118936538696,0.01,-1.23,2.43,2.72
24.721293926239014,0.11,-1.52,1.78,2.34
24.731257915496826,0.11,-1.62,1.04,1.92
24.74527597427368,0.06,-1.51,0.42,1.56
24.751381874084473,-0.05,-1.22,0.17,1.23
24.76147985458374,-0.04,-0.94,0.3,0.98
24.77164602279663,-0.1,-0.68,0.56,0.88
24.795405864715576,-0.19,-0.57,0.5,0.78
24.796163082122803,-0.34,-0.61,0.15,0.71
24.801712036132812,-0.52,-0.74,-0.32,0.95
24.811655044555664,-0.64,-0.92,-0.69,1.31
24.82189702987671,-0.72,-1.01,-0.78,1.46
24.84492301940918,-0.81,-1.07,-0.74,1.53
24.845613956451416,-0.86,-1.13,-0.71,1.58
24.851852893829346,-0.86,-1.1,-0.7,1.56
24.86208987236023,-0.72,-1.0,-0.68,1.4
24.87224578857422,-0.51,-0.91,-0.56,1.18
24.895355939865112,-0.36,-0.88,-0.23,0.97
24.896028995513916,-0.31,-0.9,0.22,0.97
24.902442932128906,-0.37,-0.91,0.58,1.14
24.912462949752808,-0.5,-0.92,0.71,1.26
24.92261791229248,-0.6,-0.9,0.53,1.2
24.9449520111084,-0.62,-0.85,0.06,1.05
24.945676803588867,-0.59,-0.75,-0.58,1.11
24.952833890914917,-0.55,-0.56,-1.19,1.42
24.96284794807434,-0.45,-0.41,-1.62,1.73
24.97296690940857,-0.27,-0.26,-1.98,2.01
24.995468854904175,-0.16,-0.03,-2.21,2.21
24.996159076690674,-0.08,0.1,-2.16,2.16
25.003098011016846,-0.12,0.15,-1.83,1.84
25.01315975189209,-0.21,0.12,-1.32,1.34
25.023231983184814,-0.23,0.09,-0.81,0.84
25.045456886291504,-0.15,0.02,-0.5,0.52
25.04619073867798,-0.19,-0.05,-0.38,0.42
25.053454875946045,-0.25,-0.11,-0.4,0.48
25.063442945480347,-0.29,-0.09,-0.58,0.65
25.07366704940796,-0.2,0.05,-0.84,0.86
25.095160007476807,-0.09,0.22,-0.99,1.01
25.095859050750732,-0.09,0.36,-0.85,0.92
25.10376501083374,-0.08,0.37,-0.52,0.64
25.113804817199707,-0.08,0.27,-0.19,0.33
25.123987913131714,-0.22,0.22,0.08,0.32
25.14492893218994,-0.38,0.13,0.18,0.44
25.14568591117859,-0.47,0.01,0.06,0.47
25.15403699874878,-0.41,-0.03,-0.24,0.47
25.164148807525635,-0.28,0.03,-0.49,0.56
25.174205780029297,-0.07,0.1,-0.49,0.5
25.19429302215576,0.1,0.14,-0.24,0.29
25.194915771484375,0.2,0.18,0.08,0.28
25.204434871673584,0.26,0.23,0.43,0.55
25.214388847351074,0.16,0.41,0.7,0.82
25.224551916122437,0.13,0.58,0.86,1.04
25.244414806365967,0.1,0.72,1.0,1.23
25.245008945465088,-0.26,1.06,1.1,1.54
25.254737854003906,-0.61,1.39,1.04,1.84
25.264720916748047,-0.73,1.59,0.95,1.99
25.274878978729248,-0.42,1.58,1.06,1.94
25.294150829315186,-0.01,1.52,1.53,2.15
25.294954776763916,0.21,1.36,2.2,2.59
25.305037021636963,0.46,0.96,2.95,3.13
25.315523862838745,0.67,0.45,3.53,3.62
25.325228929519653,0.75,-0.06,3.77,3.84
25.34446096420288,0.83,-0.57,3.7,3.83
25.345346927642822,0.87,-1.11,3.38,3.66
25.355384826660156,0.46,-1.47,2.76,3.16
25.365539073944092,-0.09,-1.78,1.81,2.54
25.37560796737671,-0.45,-1.96,0.74,2.14
25.39411687850952,-0.59,-1.99,-0.24,2.08
25.395562887191772,-0.67,-1.78,-0.89,2.09
25.405800819396973,-0.5,-1.5,-1.15,1.95
25.415626049041748,-0.08,-1.15,-1.05,1.55
25.425915956497192,0.45,-0.8,-0.8,1.21
25.44434404373169,1.02,-0.56,-0.49,1.26
25.4459068775177,1.44,-0.41,-0.13,1.5
25.456076860427856,1.5,-0.41,0.2,1.56
25.46599006652832,1.28,-0.59,0.32,1.44
25.476186752319336,0.87,-0.86,0.14,1.23
25.495076894760132,0.59,-1.05,-0.15,1.21
25.496263027191162,0.44,-1.24,-0.39,1.37
25.506339073181152,0.34,-1.37,-0.44,1.47
25.516320943832397,0.22,-1.36,-0.42,1.44
25.526604890823364,0.14,-1.28,-0.48,1.37
25.545313835144043,-0.06,-1.13,-0.61,1.28
25.54647207260132,-0.17,-0.94,-0.76,1.22
25.556687831878662,-0.17,-0.72,-0.95,1.2
25.566702842712402,-0.03,-0.58,-1.23,1.36
25.576896905899048,0.02,-0.4,-1.45,1.5
25.595293045043945,0.11,-0.34,-1.5,1.54
25.596829891204834,0.22,-0.29,-1.37,1.41
25.607059001922607,0.37,-0.2,-1.11,1.18
25.61695694923401,0.39,-0.12,-0.82,0.91
25.62723207473755,0.3,-0.15,-0.57,0.66
25.645020008087158,0.15,-0.24,-0.45,0.53
25.647188901901245,0.09,-0.38,-0.53,0.65
25.657407760620117,0.11,-0.46,-0.71,0.85
25.667293071746826,0.04,-0.5,-0.87,1.0
25.677483081817627,-0.07,-0.59,-0.92,1.09
25.694509029388428,-0.19,-0.59,-0.89,1.08
25.697460889816284,-0.08,-0.56,-0.96,1.11
25.70772385597229,0.16,-0.39,-1.16,1.23
25.71772575378418,0.36,-0.08,-1.34,1.38
25.7278048992157,0.48,0.17,-1.43,1.51
25.744653940200806,0.42,0.41,-1.39,1.5
25.74790096282959,0.39,0.63,-1.26,1.46
25.75804090499878,0.48,0.87,-1.18,1.54
25.767945766448975,0.52,1.14,-1.1,1.66
25.778172969818115,0.54,1.22,-0.9,1.6
25.794967889785767,0.48,1.2,-0.56,1.4
25.79813289642334,0.48,1.15,-0.15,1.25
25.80830693244934,0.48,1.13,0.17,1.23
25.818261861801147,0.49,1.08,0.37,1.24
25.82850980758667,0.5,1.0,0.46,1.2
25.844857931137085,0.4,0.83,0.42,1.01
25.848821878433228,0.23,0.61,0.42,0.77
25.85873794555664,0.03,0.44,0.57,0.72
25.868556022644043,0.03,0.29,0.8,0.85
25.8787899017334,0.12,0.25,0.98,1.01
25.89468789100647,0.18,0.26,1.25,1.28
25.898947954177856,0.33,0.28,1.6,1.65
25.9090838432312,0.44,0.37,1.88,1.96
25.918906927108765,0.26,0.64,1.96,2.07
25.929134845733643,-0.27,1.22,1.82,2.2
25.944293975830078,-0.59,1.69,1.48,2.32
25.94915008544922,-0.58,1.88,1.16,2.28
25.959370851516724,-0.31,1.75,1.06,2.06
25.969363927841187,-0.2,1.56,1.28,2.02
25.979460954666138,-0.19,1.2,1.74,2.12
25.994281768798828,-0.14,0.51,2.31,2.36
25.999488830566406,0.01,-0.22,2.89,2.89
26.00964879989624,0.53,-1.05,3.24,3.44
26.019677877426147,0.81,-1.75,3.37,3.88
26.029775857925415,0.62,-2.19,3.21,3.93
26.044529914855957,0.14,-2.34,2.71,3.58
26.049799919128418,-0.33,-2.13,1.83,2.82
26.059983730316162,-0.6,-1.66,0.91,1.98
26.070068836212158,-0.55,-1.23,0.15,1.35
26.08014488220215,-0.35,-1.02,-0.47,1.17
26.094883918762207,-0.27,-0.88,-0.85,1.25
26.100069999694824,-0.33,-0.72,-0.98,1.26
26.110224962234497,-0.3,-0.67,-0.9,1.16
26.120250940322876,-0.21,-0.67,-0.65,0.95
26.13041877746582,-0.03,-0.71,-0.45,0.84
26.14555597305298,0.18,-0.83,-0.37,0.92
26.150557041168213,0.36,-1.04,-0.32,1.14
26.160531997680664,0.43,-1.31,-0.32,1.41
26.170636892318726,0.3,-1.59,-0.28,1.64
26.18078899383545,0.2,-1.87,-0.16,1.88
26.196053981781006,-0.06,-2.0,-0.07,2.0
26.20099186897278,-0.35,-2.07,-0.03,2.09
26.21088194847107,-0.56,-2.04,-0.14,2.12
26.221001863479614,-0.57,-1.92,-0.35,2.03
26.231152057647705,-0.5,-1.67,-0.75,1.89
26.246002912521362,-0.29,-1.39,-1.08,1.78
26.251088857650757,-0.08,-1.13,-1.34,1.75
26.26121473312378,-0.05,-0.94,-1.56,1.82
26.271328926086426,-0.08,-0.8,-1.67,1.85
26.281457901000977,-0.09,-0.67,-1.63,1.76
26.29635787010193,-0.2,-0.57,-1.44,1.56
26.30143690109253,-0.38,-0.55,-1.15,1.33
26.311604022979736,-0.6,-0.57,-0.99,1.29
26.32163906097412,-0.75,-0.54,-1.06,1.4
26.33215594291687,-0.71,-0.47,-1.23,1.49
26.342041969299316,-0.58,-0.37,-1.3,1.47
26.36216688156128,-0.33,-0.27,-1.13,1.2
26.3628568649292,-0.1,-0.17,-0.69,0.71
26.3719699382782,-0.08,-0.11,-0.15,0.2
26.38209104537964,-0.21,-0.15,0.25,0.35
26.3921480178833,-0.34,-0.15,0.3,0.47
26.411897897720337,-0.5,-0.11,0.05,0.51
26.412601947784424,-0.63,-0.1,-0.36,0.73
26.4223370552063,-0.72,-0.13,-0.79,1.07
26.432222843170166,-0.8,-0.19,-1.01,1.3
26.44247579574585,-0.8,-0.28,-0.8,1.16
26.461867809295654,-0.64,-0.38,-0.14,0.75
26.462626934051514,-0.42,-0.46,0.73,0.95
26.47262692451477,-0.19,-0.59,1.37,1.5
26.482584953308105,-0.1,-0.63,1.67,1.78
26.49276304244995,0.0,-0.7,1.86,1.98
26.51115083694458,-0.03,-0.82,1.81,1.98
26.512733936309814,-0.45,-0.58,1.65,1.8
26.523006916046143,-0.76,-0.2,1.42,1.62
26.532890796661377,-0.83,0.11,1.18,1.44
26.543066024780273,-0.73,0.29,1.01,1.27
26.560901880264282,-0.45,0.33,1.11,1.24
26.56318998336792,0.03,0.23,1.41,1.42
26.57335591316223,0.62,-0.02,1.78,1.88
26.58326482772827,1.06,-0.4,2.17,2.44
26.593421936035156,1.35,-0.78,2.54,2.98
26.611021041870117,1.73,-1.31,2.7,3.46
26.6134090423584,1.74,-1.85,2.66,3.67
26.623697757720947,1.47,-2.41,2.42,3.71
26.633558750152588,1.03,-2.76,1.99,3.55
26.643789768218994,0.53,-2.83,1.49,3.24
26.661141872406006,0.22,-2.74,0.87,2.88
26.663713932037354,-0.06,-2.4,0.33,2.42
26.67399787902832,-0.13,-1.94,-0.01,1.94
26.68388795852661,0.25,-1.52,-0.05,1.54
26.69405174255371,0.72,-1.08,0.34,1.34
26.71093487739563,1.06,-0.88,1.05,1.73
26.71416187286377,0.91,-0.94,1.68,2.12
26.72426176071167,0.52,-1.1,1.99,2.33
26.734288930892944,0.14,-1.25,1.74,2.14
26.744423866271973,-0.36,-1.3,0.93,1.63
26.760740756988525,-0.67,-1.31,-0.12,1.47
26.764519929885864,-0.73,-1.27,-0.98,1.76
26.77471089363098,-0.71,-1.18,-1.63,2.13
26.7847318649292,-0.77,-1.01,-2.05,2.41
26.79478693008423,-0.69,-0.89,-2.03,2.32
26.811564922332764,-0.56,-0.8,-1.56,1.84
26.81469202041626,-0.24,-0.85,-0.91,1.26
26.824965000152588,0.12,-0.9,-0.44,1.0
26.834877014160156,0.4,-0.98,-0.23,1.08
26.84507393836975,0.58,-1.16,-0.21,1.31
26.861424922943115,0.57,-1.31,-0.24,1.44
26.865521907806396,0.51,-1.38,-0.3,1.5
26.8753080368042,0.36,-1.6,-0.34,1.67
26.885252952575684,0.14,-1.86,-0.29,1.88
26.895461082458496,-0.01,-2.08,-0.05,2.08
26.911800861358643,-0.27,-2.29,0.18,2.31
26.91552186012268,-0.45,-2.51,0.23,2.56
26.925659894943237,-0.72,-2.47,0.15,2.57
26.93559980392456,-0.88,-2.14,-0.01,2.31
26.94577693939209,-0.59,-1.6,-0.21,1.71
26.961101055145264,-0.23,-0.99,-0.24,1.04
26.96574592590332,0.14,-0.56,-0.02,0.57
26.975933074951172,0.34,-0.35,0.33,0.58
26.986062049865723,0.41,-0.27,0.69,0.84
26.99604082107544,0.33,-0.18,0.99,1.05
27.010875940322876,0.07,-0.12,1.17,1.17
27.016048908233643,-0.3,-0.1,1.07,1.11
27.026209831237793,-0.48,-0.16,0.81,0.95
27.036444902420044,-0.33,-0.38,0.61,0.79
27.04635787010193,0.04,-0.75,0.6,0.96
27.06005096435547,0.39,-1.23,0.78,1.5
27.066391944885254,0.55,-1.61,0.96,1.95
27.076581954956055,0.37,-1.8,0.98,2.08
27.08667492866516,0.14,-1.93,0.85,2.11
27.096674919128418,0.04,-1.81,0.46,1.86
27.110651969909668,0.0,-1.6,-0.07,1.6
27.11690902709961,-0.02,-1.41,-0.56,1.51
27.126944065093994,-0.04,-1.2,-0.77,1.42
27.137145042419434,-0.01,-1.05,-0.7,1.26
27.147135734558105,0.03,-0.89,-0.43,0.98
27.161520957946777,0.02,-0.69,-0.14,0.7
27.16718101501465,0.06,-0.53,-0.13,0.54
27.177227020263672,0.15,-0.33,-0.37,0.51
27.18732976913452,0.25,-0.15,-0.57,0.64
27.19739007949829,0.31,-0.09,-0.57,0.65
27.211200952529907,0.33,-0.15,-0.31,0.47
27.217534065246582,0.3,-0.3,0.07,0.43
27.22763681411743,0.15,-0.58,0.38,0.7
27.237785816192627,-0.07,-0.88,0.62,1.07
27.24773597717285,-0.23,-1.09,0.78,1.35
27.26198387145996,-0.33,-1.21,0.85,1.51
27.267911911010742,-0.38,-1.24,0.8,1.52
27.277827739715576,-0.31,-1.22,0.54,1.36
27.2880220413208,-0.14,-1.08,0.22,1.11
27.297998905181885,0.19,-0.81,0.01,0.83
27.311587810516357,0.43,-0.58,0.02,0.72
27.318277835845947,0.51,-0.49,0.12,0.71
27.328235864639282,0.49,-0.49,0.23,0.73
27.338209867477417,0.4,-0.56,0.38,0.78
27.361484050750732,0.3,-0.66,0.45,0.85
27.36214590072632,0.28,-0.72,0.36,0.85
27.368908882141113,0.29,-0.69,0.14,0.76
27.378410816192627,0.36,-0.62,-0.09,0.72
27.38857078552246,0.36,-0.47,-0.21,0.62
27.41187596321106,0.37,-0.28,-0.17,0.49
27.412561893463135,0.46,-0.09,-0.05,0.47
27.418750762939453,0.55,0.09,0.05,0.55
27.428817749023438,0.53,0.19,0.03,0.56
27.438902854919434,0.36,0.16,0.01,0.39
27.462214946746826,0.19,0.03,0.05,0.19
27.462899923324585,0.04,-0.15,0.17,0.23
27.469085931777954,-0.09,-0.38,0.29,0.48
27.479187965393066,-0.14,-0.58,0.44,0.74
27.489418029785156,-0.12,-0.66,0.55,0.86
27.511789798736572,-0.19,-0.69,0.64,0.96
27.512478828430176,-0.18,-0.65,0.52,0.85
27.519484996795654,-0.15,-0.46,0.32,0.58
27.52952480316162,-0.08,-0.28,0.15,0.32
27.539591789245605,-0.01,-0.14,0.01,0.14
27.562193870544434,0.08,-0.08,-0.08,0.13
27.562886953353882,0.11,-0.1,-0.16,0.21
27.569800853729248,0.09,-0.18,-0.2,0.28
27.579798936843872,0.02,-0.3,-0.11,0.32
27.589963912963867,-0.05,-0.41,0.08,0.42
27.611475944519043,-0.09,-0.42,0.23,0.48
27.61213779449463,-0.09,-0.35,0.28,0.45
27.620198965072632,-0.08,-0.25,0.25,0.36
27.630198001861572,-0.1,-0.09,0.22,0.25
27.640286922454834,-0.09,0.06,0.14,0.17
27.662219047546387,-0.05,0.15,0.07,0.17
27.662863731384277,0.03,0.17,0.07,0.18
27.670490741729736,0.07,0.16,0.14,0.22
27.680562019348145,0.0,0.05,0.25,0.25
27.690608978271484,-0.07,-0.11,0.33,0.35
27.71121096611023,-0.11,-0.19,0.36,0.42
27.711911916732788,-0.13,-0.24,0.35,0.44
27.720905780792236,-0.14,-0.26,0.23,0.37
27.73087978363037,-0.17,-0.26,0.08,0.32
27.741047859191895,-0.19,-0.23,-0.04,0.3
27.76185393333435,-0.26,-0.14,-0.1,0.31
27.76254391670227,-0.24,-0.07,-0.14,0.28
27.771251916885376,-0.16,0.04,-0.16,0.22
27.78116273880005,-0.08,0.11,-0.18,0.22
27.791346073150635,-0.04,0.11,-0.11,0.16
27.81155300140381,-0.02,0.07,0.03,0.07
27.812231063842773,-0.02,0.0,0.14,0.14
27.822296857833862,0.0,-0.05,0.17,0.17
27.831905841827393,0.01,-0.08,0.14,0.16
27.841579914093018,-0.07,-0.12,0.14,0.19
27.86045503616333,-0.1,-0.21,0.16,0.28
27.86180305480957,-0.19,-0.26,0.21,0.38
27.871720790863037,-0.23,-0.29,0.23,0.43
27.88201379776001,-0.2,-0.24,0.17,0.35
27.89197087287903,-0.09,-0.17,0.05,0.19
27.911377906799316,0.03,-0.1,-0.07,0.12
27.91206192970276,0.0,-0.02,-0.13,0.13
27.922194004058838,-0.02,0.01,-0.13,0.13
27.932044982910156,0.0,0.01,-0.1,0.1
27.942396879196167,-0.02,0.02,-0.07,0.07
27.961453914642334,-0.03,0.0,0.05,0.05
27.962172031402588,-0.03,-0.05,0.19,0.19
27.972421884536743,0.01,-0.08,0.29,0.3
27.9824059009552,0.04,-0.11,0.34,0.35
27.992653846740723,0.09,-0.18,0.36,0.41
28.010502815246582,0.06,-0.24,0.36,0.43
28.012521743774414,0.03,-0.3,0.35,0.46
28.022840976715088,0.01,-0.34,0.26,0.42
28.032803058624268,0.04,-0.27,0.11,0.29
28.043028831481934,0.01,-0.18,-0.02,0.18
28.060866832733154,-0.05,-0.14,-0.15,0.21
28.062814950942993,-0.03,-0.07,-0.2,0.21
28.073208808898926,0.04,-0.02,-0.18,0.18
28.083133935928345,0.06,-0.01,-0.06,0.08
28.093276023864746,0.09,-0.03,0.02,0.09
28.111817836761475,0.13,-0.04,0.06,0.14
28.113173961639404,0.13,-0.07,0.13,0.19
28.123623847961426,0.09,-0.11,0.21,0.25
28.133468866348267,0.06,-0.12,0.27,0.3
28.143560886383057,-0.03,-0.11,0.3,0.32
28.16134786605835,-0.07,-0.11,0.27,0.29
28.163591861724854,-0.05,-0.09,0.19,0.21
28.173804759979248,-0.04,-0.04,0.11,0.12
28.184000968933105,-0.05,-0.04,0.05,0.08
28.195183753967285,-0.07,-0.03,0.01,0.07
28.212446928024292,-0.05,-0.04,-0.04,0.07
28.215209007263184,-0.03,-0.06,-0.09,0.11
28.225437879562378,-0.04,-0.06,-0.1,0.12
28.235363006591797,-0.08,-0.11,-0.05,0.14
28.245512008666992,-0.13,-0.17,0.02,0.21
28.262001037597656,-0.13,-0.22,0.1,0.27
28.265445947647095,-0.09,-0.23,0.18,0.3
28.275768756866455,-0.07,-0.22,0.23,0.32
28.285789012908936,-0.04,-0.15,0.17,0.23
28.295784950256348,0.02,-0.04,0.02,0.04
28.311349868774414,0.03,0.03,-0.12,0.12
28.31586194038391,0.01,0.05,-0.17,0.17
28.325878858566284,0.01,0.04,-0.17,0.17
28.336153984069824,-0.04,-0.01,-0.09,0.09
28.346110820770264,-0.09,-0.1,0.01,0.13
28.36131191253662,-0.05,-0.15,0.09,0.18
28.366096019744873,0.03,-0.19,0.15,0.24
28.376359939575195,0.06,-0.22,0.18,0.29
28.38644289970398,-0.03,-0.21,0.18,0.27
28.39649796485901,-0.12,-0.18,0.11,0.24
28.411550045013428,-0.16,-0.12,0.02,0.2
28.416486740112305,-0.18,-0.06,-0.09,0.21
28.426644802093506,-0.16,0.0,-0.17,0.23
28.436686038970947,-0.06,0.03,-0.23,0.23
28.446788787841797,0.05,0.04,-0.16,0.17
28.461972951889038,0.12,0.02,0.02,0.12
28.466721057891846,0.13,-0.04,0.21,0.25
28.4768648147583,0.09,-0.12,0.32,0.35
28.486998081207275,0.08,-0.14,0.29,0.33
28.497142791748047,0.02,-0.12,0.17,0.2
28.512013912200928,0.02,-0.09,0.02,0.09
28.51719903945923,0.0,-0.04,-0.09,0.09
28.52728796005249,-0.01,0.0,-0.12,0.12
28.537309885025024,-0.02,0.0,-0.11,0.11
28.547486782073975,-0.03,-0.01,-0.06,0.06
28.56287384033203,-0.04,-0.04,0.02,0.06
28.567619800567627,-0.06,-0.06,0.1,0.13
28.577624797821045,-0.03,-0.05,0.14,0.15
28.58767294883728,0.07,-0.02,0.17,0.18
28.59773874282837,0.02,0.0,0.2,0.2
28.612743854522705,-0.05,-0.03,0.08,0.09
28.6178617477417,-0.06,-0.01,-0.07,0.09
28.627863883972168,-0.08,-0.01,-0.05,0.09
28.638054847717285,-0.1,-0.03,0.03,0.1
28.64870285987854,-0.14,-0.06,0.16,0.22
28.65820598602295,-0.13,-0.11,0.18,0.24
28.678711891174316,-0.13,-0.08,0.13,0.2
28.679388999938965,-0.12,-0.06,0.05,0.14
28.68839192390442,-0.11,-0.02,0.0,0.11
28.698567867279053,-0.13,-0.03,0.02,0.13
28.708553791046143,-0.13,-0.01,0.11,0.17
28.72777485847473,-0.14,0.03,0.16,0.21
28.72854495048523,-0.18,-0.04,0.14,0.23
28.738695859909058,-0.1,-0.1,0.07,0.15
28.748573780059814,-0.09,-0.11,0.01,0.14
28.75877594947815,-0.08,-0.13,0.1,0.18
28.777132034301758,-0.01,-0.12,0.23,0.25
28.778709888458252,-0.02,-0.12,0.24,0.26
28.78890085220337,-0.03,-0.12,0.18,0.21
28.798917770385742,0.0,-0.11,0.06,0.12
28.80912494659424,0.05,-0.06,0.07,0.1
28.827642917633057,0.14,0.02,0.22,0.26
28.82900381088257,0.14,0.09,0.22,0.27
28.839344024658203,0.18,0.03,0.06,0.19
28.849291801452637,0.29,0.07,-0.03,0.29
28.859420776367188,0.31,0.04,-0.07,0.32
28.877455949783325,0.17,0.01,-0.09,0.19
28.879406929016113,0.03,-0.01,-0.05,0.05
28.889649868011475,-0.07,-0.08,-0.05,0.11
28.899521827697754,-0.13,-0.08,0.08,0.17
28.909735918045044,-0.16,-0.1,0.14,0.23
28.927433967590332,-0.2,-0.13,0.14,0.27
28.9298038482666,-0.09,-0.11,0.03,0.14
28.940006732940674,0.13,-0.04,-0.11,0.17
28.950010776519775,0.23,0.0,-0.17,0.28
28.96018886566162,0.2,0.02,-0.13,0.23
28.977348804473877,0.14,-0.03,-0.07,0.15
28.980074882507324,0.03,-0.09,-0.07,0.11
28.990298748016357,-0.03,-0.09,-0.02,0.09
29.000221729278564,0.04,-0.11,0.08,0.14
29.01046395301819,0.06,-0.18,0.13,0.23
29.02745008468628,0.1,-0.19,0.24,0.32
29.03042507171631,0.14,-0.14,0.33,0.38
29.040721893310547,0.08,-0.17,0.29,0.34
29.050675868988037,0.02,-0.12,0.14,0.18
29.060762882232666,-0.05,-0.12,0.06,0.14
29.077326774597168,0.07,-0.06,0.07,0.11
29.080837965011597,0.11,-0.03,0.14,0.18
29.090998888015747,0.08,0.0,0.19,0.2
29.100875854492188,0.03,-0.05,0.07,0.09
29.11109185218811,0.01,-0.04,-0.23,0.23
29.127851009368896,0.04,0.0,-0.24,0.24
29.13115406036377,0.09,-0.02,-0.19,0.21
29.14131784439087,0.07,-0.05,-0.08,0.11
29.151268005371094,-0.06,-0.07,0.07,0.11
29.161376953125,-0.1,-0.07,0.19,0.22
29.178046941757202,-0.1,-0.05,0.25,0.27
29.19390106201172,-0.05,-0.03,0.14,0.15
29.195689916610718,-0.03,-0.02,-0.1,0.1
29.20160675048828,-0.12,0.01,-0.12,0.17
29.211711883544922,-0.11,-0.02,-0.07,0.13
29.224228858947754,-0.12,-0.02,0.06,0.13
29.23169994354248,-0.04,-0.01,0.17,0.17
29.24198889732361,-0.02,-0.04,0.27,0.27
29.251858949661255,-0.02,-0.09,0.33,0.34
29.26208782196045,0.03,-0.07,0.29,0.29
29.274725914001465,0.04,-0.02,0.21,0.21
29.282039880752563,0.05,0.01,0.08,0.09
29.292221069335938,0.03,0.04,-0.01,0.05
29.302291870117188,0.08,0.04,-0.11,0.14
29.312291860580444,0.11,0.07,-0.2,0.23
29.32538890838623,0.09,0.06,-0.19,0.21
29.33237886428833,0.07,0.06,-0.07,0.11
29.34251880645752,0.01,0.09,0.12,0.15
29.352618932724,-0.04,0.07,0.27,0.28
29.36271905899048,0.0,0.02,0.28,0.28
29.376515865325928,0.07,-0.01,0.16,0.17
29.382774829864502,0.11,-0.02,0.06,0.12
29.39286994934082,0.05,-0.07,0.05,0.09
29.403164863586426,-0.07,-0.13,0.15,0.21
29.413099765777588,-0.19,-0.17,0.26,0.36
29.42686700820923,-0.25,-0.18,0.29,0.42
29.433117866516113,-0.22,-0.14,0.23,0.34
29.44322681427002,-0.11,-0.01,0.21,0.23
29.45352077484131,0.01,0.09,0.15,0.17
29.46335196495056,0.04,0.11,0.0,0.11
29.478219985961914,0.11,0.12,-0.13,0.2
29.483556747436523,0.18,0.11,-0.18,0.27
29.49357295036316,0.14,0.11,-0.04,0.18
29.50374174118042,0.04,0.03,0.02,0.05
29.513690948486328,-0.06,-0.1,-0.04,0.12
29.527500867843628,-0.04,-0.14,-0.04,0.15
29.533976078033447,-0.02,-0.11,0.03,0.11
29.54391574859619,-0.05,-0.13,0.14,0.19
29.554123878479004,-0.08,-0.15,0.26,0.31
29.564225912094116,-0.1,-0.14,0.24,0.29
29.57792377471924,-0.19,-0.07,0.16,0.25
29.584224939346313,-0.17,-0.09,0.03,0.19
29.594232082366943,-0.06,-0.06,-0.1,0.13
29.60438299179077,0.13,0.03,-0.14,0.19
29.614349842071533,0.17,0.1,-0.08,0.21
29.628655910491943,0.11,0.08,0.06,0.14
29.634483814239502,0.15,0.05,0.19,0.24
29.64449691772461,0.16,0.08,0.22,0.28
29.654648780822754,0.12,0.08,0.28,0.31
29.67831587791443,0.07,0.04,0.29,0.3
29.67900800704956,0.0,0.04,0.19,0.19
29.684940814971924,-0.02,0.07,0.05,0.08
29.694899082183838,0.0,0.1,-0.03,0.1
29.70508575439453,0.0,0.07,-0.05,0.08
29.72865581512451,0.01,0.01,-0.05,0.05
29.729294776916504,0.02,-0.05,0.01,0.05
29.735139846801758,0.01,-0.07,0.18,0.19
29.74523091316223,-0.02,-0.13,0.29,0.31
29.755334854125977,-0.07,-0.22,0.26,0.34
29.779006004333496,-0.1,-0.21,0.12,0.26
29.77969193458557,-0.13,-0.16,-0.09,0.22
29.785551071166992,-0.14,-0.11,-0.25,0.3
29.795538902282715,-0.05,-0.03,-0.31,0.31
29.805635929107666,0.01,0.05,-0.29,0.29
29.82841205596924,0.08,0.09,-0.21,0.24
29.829099893569946,0.19,0.13,-0.1,0.25
29.83585286140442,0.27,0.18,0.06,0.33
29.84593391418457,0.25,0.19,0.18,0.36
29.856031894683838,0.16,0.14,0.22,0.3
29.877899885177612,0.15,0.09,0.17,0.24
29.878593921661377,0.14,0.05,0.07,0.16
29.886178970336914,0.15,0.03,0.03,0.15
29.8962140083313,0.13,0.02,0.14,0.19
29.90633201599121,0.09,0.02,0.27,0.28
29.92839002609253,0.02,0.01,0.28,0.28
29.929067850112915,-0.01,0.08,0.17,0.18
29.936413764953613,-0.04,0.12,0.04,0.13
29.947059869766235,-0.07,0.16,-0.05,0.18
29.956710815429688,-0.09,0.17,-0.08,0.2
29.97755479812622,-0.12,0.15,-0.05,0.19
29.978253841400146,-0.11,0.14,-0.09,0.19
29.986783027648926,-0.01,0.14,-0.19,0.23
29.996784925460815,0.09,0.13,-0.29,0.33
30.00704288482666,0.02,0.07,-0.27,0.27
30.028148889541626,-0.1,0.01,-0.11,0.14
30.02881097793579,-0.19,0.01,0.08,0.2
30.03718590736389,-0.25,0.05,0.12,0.28
30.047173023223877,-0.29,0.1,0.03,0.3
30.05734896659851,-0.2,0.23,-0.08,0.31
30.077778816223145,-0.05,0.39,-0.15,0.42
30.07846188545227,0.04,0.51,-0.14,0.53
30.08756995201111,0.12,0.59,-0.08,0.6
30.097545862197876,0.18,0.62,-0.05,0.64
30.107598781585693,0.18,0.59,-0.06,0.61
30.127377033233643,0.12,0.57,-0.06,0.58
30.128052949905396,0.05,0.51,-0.05,0.51
30.137831926345825,-0.02,0.45,-0.06,0.45
30.148351907730103,-0.08,0.43,0.0,0.43
30.157978057861328,-0.09,0.44,0.05,0.45
30.1773099899292,-0.04,0.46,0.11,0.47
30.178032875061035,0.02,0.49,0.17,0.51
30.188096046447754,0.01,0.48,0.18,0.51
30.198368072509766,-0.05,0.47,0.08,0.47
30.208330869674683,-0.12,0.45,-0.12,0.48
30.227264881134033,-0.16,0.49,-0.35,0.62
30.228137969970703,-0.06,0.55,-0.55,0.78
30.23843002319336,0.05,0.59,-0.65,0.87
30.248438835144043,0.04,0.57,-0.66,0.87
30.258633852005005,0.01,0.47,-0.56,0.73
30.277578830718994,-0.01,0.41,-0.38,0.55
30.27847385406494,0.03,0.31,-0.15,0.34
30.288781881332397,0.06,0.18,0.02,0.19
30.298694849014282,0.0,0.07,0.0,0.07
30.308902740478516,-0.02,-0.01,-0.24,0.24
30.327610969543457,0.14,0.07,-0.61,0.62
30.328831911087036,0.48,0.31,-0.93,1.09
30.339138984680176,0.83,0.6,-1.07,1.48
30.349040031433105,0.85,0.9,-1.03,1.61
30.35923194885254,0.63,1.14,-1.0,1.64
30.377527952194214,0.41,1.36,-1.01,1.74
30.379167079925537,0.35,1.54,-1.03,1.88
30.38942003250122,0.35,1.63,-1.04,1.96
30.399319887161255,0.37,1.6,-1.01,1.92
