time,ax,ay,az,atotal
0.01398468017578125,-0.17,0.15,2.79,2.79
0.014592885971069336,-0.29,0.69,2.75,2.85
0.023271799087524414,-0.17,1.4,2.62,2.97
0.033780813217163086,-0.01,1.74,2.18,2.78
0.04333782196044922,-0.01,1.51,1.59,2.19
0.06121182441711426,-0.04,1.19,1.44,1.86
0.06339883804321289,-0.11,0.98,1.78,2.03
0.07376575469970703,-0.01,0.59,2.23,2.3
0.08382987976074219,0.02,0.27,2.5,2.51
0.0939626693725586,-0.12,-0.09,2.38,2.38
0.1116938591003418,-0.17,-0.46,1.93,1.99
0.11380887031555176,-0.04,-0.83,1.47,1.68
0.12407398223876953,0.12,-1.23,1.28,1.77
0.13394880294799805,0.39,-1.45,1.27,1.96
0.14428997039794922,0.71,-1.42,1.25,2.02
0.16225671768188477,0.91,-1.14,0.93,1.72
0.16420793533325195,1.03,-0.81,-0.32,1.34
0.17440366744995117,0.88,-0.42,-0.67,1.18
0.18436670303344727,1.09,-0.17,-0.83,1.38
0.1944899559020996,0.99,-0.07,-1.03,1.43
0.21318888664245605,0.85,-0.22,-1.24,1.51
0.2145078182220459,0.69,-0.34,-1.06,1.3
0.22467279434204102,0.61,-0.41,-0.53,0.9
0.23465871810913086,0.5,-0.48,0.02,0.69
0.24488377571105957,0.33,-0.68,0.24,0.79
0.26317596435546875,0.23,-0.87,0.24,0.93
0.26482200622558594,0.13,-1.0,0.18,1.02
0.2751188278198242,-0.01,-1.09,0.26,1.12
0.2850179672241211,-0.08,-1.07,0.4,1.14
0.29509973526000977,-0.08,-0.95,0.41,1.03
0.31415891647338867,-0.08,-0.81,0.08,0.81
0.31508684158325195,0.0,-0.63,-0.6,0.87
0.32541799545288086,0.09,-0.5,-1.29,1.38
0.3354148864746094,0.09,-0.43,-1.8,1.85
0.34555578231811523,0.03,-0.33,-2.02,2.04
0.36362600326538086,0.01,-0.28,-2.04,2.05
0.3654899597167969,-0.04,-0.22,-1.96,1.97
0.3756709098815918,-0.07,-0.18,-1.97,1.97
0.3856468200683594,-0.05,-0.13,-1.99,1.99
0.39586877822875977,-0.01,-0.08,-1.94,1.94
0.41382598876953125,0.1,0.03,-1.86,1.86
0.4159228801727295,0.24,0.15,-1.77,1.79
0.42607688903808594,0.32,0.24,-1.66,1.7
0.43590879440307617,0.41,0.31,-1.53,1.61
0.4461848735809326,0.48,0.34,-1.39,1.5
0.4637126922607422,0.5,0.33,-1.14,1.28
0.46612071990966797,0.54,0.29,-0.77,0.98
0.4762728214263916,0.54,0.28,-0.36,0.7
0.48640871047973633,0.51,0.31,0.17,0.62
0.4965519905090332,0.46,0.4,0.43,0.74
0.5132598876953125,0.48,0.52,0.31,0.77
0.5163998603820801,0.5,0.65,-0.02,0.82
0.5265488624572754,0.35,0.8,-0.12,0.88
0.5367469787597656,0.23,0.93,0.04,0.95
0.5468039512634277,0.09,1.07,0.13,1.08
0.562828779220581,-0.06,1.1,0.19,1.11
0.5672268867492676,-0.25,1.03,0.56,1.19
0.5770359039306641,-0.35,0.99,1.01,1.45
0.5868597030639648,-0.38,0.84,1.27,1.56
0.5971379280090332,-0.5,0.56,1.82,1.96
0.6129388809204102,-0.35,0.26,2.4,2.43
0.6172058582305908,-0.35,0.16,2.79,2.81
0.6273918151855469,-0.43,0.69,2.87,2.98
0.6371626853942871,-0.51,1.7,2.57,3.12
0.6474947929382324,-0.67,2.09,2.11,3.04
0.6631379127502441,-0.93,1.78,1.73,2.65
0.6673808097839355,-1.12,1.35,1.43,2.26
0.6776878833770752,-0.94,0.81,1.25,1.76
0.6876969337463379,-0.43,-0.09,1.45,1.51
0.6977930068969727,0.01,-0.91,2.06,2.25
0.7133216857910156,0.36,-1.6,2.76,3.21
0.7177698612213135,0.5,-1.98,3.25,3.83
0.7279307842254639,0.39,-1.96,3.23,3.79
0.7379307746887207,0.11,-1.65,2.53,3.02
0.7481088638305664,-0.35,-1.28,1.54,2.03
0.7633829116821289,-0.7,-0.96,0.55,1.3
0.7680518627166748,-0.86,-0.71,-0.38,1.17
0.778303861618042,-0.83,-0.57,-1.3,1.64
0.7883617877960205,-0.74,-0.35,-1.9,2.06
0.7984809875488281,-0.62,-0.11,-1.78,1.88
0.813544750213623,-0.51,-0.2,-1.13,1.25
0.8184428215026855,-0.48,-0.5,-0.43,0.81
0.8286089897155762,-0.43,-0.69,0.12,0.82
0.8386328220367432,-0.31,-0.8,0.28,0.9
0.8487157821655273,-0.31,-0.95,0.03,0.99
0.8641576766967773,-0.36,-1.02,-0.33,1.13
0.8688218593597412,-0.29,-1.03,-0.59,1.22
0.8787989616394043,-0.2,-0.99,-0.73,1.24
0.8889579772949219,-0.14,-0.86,-0.8,1.18
0.899014949798584,-0.03,-0.63,-0.94,1.13
0.9140338897705078,0.05,-0.36,-1.25,1.3
0.9191269874572754,0.04,-0.17,-1.7,1.7
0.9292569160461426,-0.08,-0.08,-2.07,2.07
0.9392876625061035,-0.16,0.0,-2.11,2.11
0.9492616653442383,-0.22,0.04,-1.96,1.97
0.9646549224853516,-0.26,0.03,-1.75,1.76
0.9695508480072021,-0.24,0.05,-1.62,1.63
0.9795637130737305,-0.21,0.05,-1.65,1.66
0.9896857738494873,-0.23,0.06,-1.83,1.84
0.9996898174285889,-0.23,0.09,-1.96,1.97
1.0149469375610352,-0.27,0.13,-1.91,1.93
1.0197439193725586,-0.34,0.14,-1.83,1.86
1.0298528671264648,-0.36,0.2,-1.72,1.76
1.0398359298706055,-0.42,0.28,-1.51,1.59
1.0506019592285156,-0.41,0.38,-1.34,1.45
1.0601286888122559,-0.35,0.46,-1.3,1.42
1.0815258026123047,-0.33,0.55,-1.12,1.29
1.0822129249572754,-0.35,0.6,-0.78,1.04
1.0902578830718994,-0.4,0.64,-0.43,0.86
1.100578784942627,-0.42,0.65,-0.15,0.78
1.1104578971862793,-0.43,0.62,0.18,0.77
1.1304218769073486,-0.56,0.65,0.57,1.03
1.1311206817626953,-0.57,0.8,0.89,1.32
1.1407148838043213,-0.46,0.85,1.04,1.41
1.1504926681518555,-0.42,0.76,1.11,1.4
1.1607747077941895,-0.35,0.61,1.3,1.47
1.1792118549346924,-0.32,0.51,1.79,1.88
1.1806869506835938,-0.43,0.87,2.41,2.59
1.1909728050231934,-0.5,1.59,2.76,3.22
1.200784683227539,-0.31,1.93,2.57,3.22
1.2110788822174072,-0.23,1.73,2.08,2.71
1.2290797233581543,-0.27,1.36,1.92,2.36
1.2311468124389648,-0.17,0.99,2.45,2.64
1.241257667541504,0.05,0.48,3.2,3.23
1.2512528896331787,0.2,-0.14,3.68,3.68
1.261415958404541,0.34,-0.67,3.71,3.78
1.2788608074188232,0.54,-1.18,3.17,3.42
1.2812919616699219,0.58,-1.55,2.54,3.03
1.2916858196258545,0.54,-1.65,2.09,2.71
1.3015170097351074,0.6,-1.71,1.71,2.49
1.3117246627807617,0.74,-1.73,1.2,2.23
1.3288848400115967,0.85,-1.55,0.64,1.88
1.331751823425293,1.03,-1.13,-0.11,1.53
1.3418898582458496,1.48,-0.63,-0.92,1.85
1.3518788814544678,1.38,-0.24,-1.5,2.05
1.3620429039001465,1.27,-0.15,-1.94,2.32
1.3794636726379395,0.95,-0.15,-2.15,2.35
1.3819527626037598,0.8,-0.25,-2.06,2.22
1.392291784286499,0.68,-0.33,-1.45,1.63
1.4022059440612793,0.65,-0.62,-0.78,1.18
1.4123458862304688,0.55,-0.91,-0.29,1.1
1.4294967651367188,0.56,-1.18,-0.06,1.3
1.4322986602783203,0.54,-1.33,0.05,1.43
1.4425818920135498,0.39,-1.39,0.24,1.46
1.452488899230957,0.29,-1.36,0.48,1.47
1.4626657962799072,0.19,-1.16,0.58,1.31
1.4788918495178223,0.1,-0.87,0.26,0.91
1.4826679229736328,0.01,-0.62,-0.36,0.71
1.4929556846618652,0.0,-0.35,-1.14,1.19
1.5027718544006348,0.08,-0.19,-1.86,1.87
1.5129647254943848,0.09,-0.18,-2.28,2.28
1.529552936553955,0.15,-0.14,-2.34,2.34
1.5330729484558105,0.13,-0.09,-2.15,2.15
1.543191909790039,0.1,-0.1,-1.96,1.96
1.5533337593078613,0.16,-0.01,-1.84,1.84
1.5634348392486572,0.15,0.08,-1.91,1.91
1.579246997833252,0.14,0.21,-2.1,2.11
1.5839147567749023,0.21,0.39,-2.28,2.32
1.5936989784240723,0.3,0.57,-2.43,2.51
1.6034917831420898,0.44,0.67,-2.41,2.53
1.6135706901550293,0.54,0.67,-2.09,2.26
1.629502773284912,0.57,0.6,-1.51,1.72
1.6337499618530273,0.53,0.53,-0.84,1.12
1.6438648700714111,0.55,0.43,-0.33,0.77
1.653843879699707,0.54,0.38,-0.01,0.66
1.6640796661376953,0.51,0.44,0.24,0.71
1.6795649528503418,0.49,0.58,0.37,0.84
1.6839258670806885,0.47,0.76,0.37,0.96
1.6941709518432617,0.42,0.94,0.39,1.1
1.704265832901001,0.36,1.08,0.52,1.25
1.7143738269805908,0.23,1.19,0.61,1.35
1.7294838428497314,0.19,1.21,0.81,1.46
1.7343308925628662,-0.01,1.14,1.2,1.65
1.7445018291473389,-0.19,0.95,1.69,1.94
1.7545757293701172,-0.28,0.67,2.22,2.33
1.7646558284759521,-0.22,0.35,2.64,2.67
1.7795276641845703,-0.15,0.07,2.93,2.93
1.7846548557281494,-0.15,0.04,3.1,3.1
1.7948689460754395,-0.17,0.76,3.11,3.2
1.8049118518829346,-0.21,1.79,2.91,3.42
1.8148958683013916,-0.27,2.12,2.35,3.17
1.8295278549194336,-0.54,1.85,1.55,2.47
1.8350319862365723,-0.72,1.53,1.08,2.0
1.845146656036377,-0.55,1.2,1.18,1.77
1.8552427291870117,-0.19,0.51,1.75,1.83
1.8653528690338135,0.14,-0.26,2.5,2.51
1.8796319961547852,0.49,-0.94,2.82,3.01
1.8855748176574707,0.63,-1.53,2.77,3.22
1.8956098556518555,0.37,-1.77,2.55,3.12
1.9056577682495117,-0.01,-1.8,1.97,2.66
1.915651798248291,-0.47,-1.66,1.13,2.06
1.929323673248291,-0.74,-1.54,0.17,1.71
1.9358329772949219,-0.87,-1.33,-0.49,1.66
1.9457459449768066,-0.81,-1.08,-0.75,1.54
1.9559569358825684,-0.65,-0.97,-0.78,1.4
1.9659738540649414,-0.44,-0.88,-0.66,1.18
1.9803168773651123,-0.24,-0.86,-0.49,1.01
1.986095905303955,-0.12,-0.86,-0.25,0.9
1.9961557388305664,0.0,-0.8,-0.11,0.8
2.006309986114502,0.06,-0.77,-0.24,0.8
2.0163168907165527,0.07,-0.76,-0.55,0.94
2.031371831893921,0.14,-0.72,-0.81,1.09
2.036454677581787,0.14,-0.73,-1.13,1.35
2.046499729156494,0.11,-0.74,-1.45,1.63
2.056649684906006,0.13,-0.71,-1.61,1.76
2.07999587059021,0.18,-0.66,-1.56,1.7
2.0807058811187744,0.17,-0.64,-1.44,1.58
2.086638927459717,0.11,-0.59,-1.45,1.56
2.096728801727295,0.09,-0.5,-1.51,1.59
2.106794834136963,-0.03,-0.38,-1.59,1.63
2.129715919494629,-0.18,-0.26,-1.77,1.79
2.1304097175598145,-0.3,-0.14,-1.91,1.93
2.1370997428894043,-0.4,-0.1,-1.94,1.98
2.147063732147217,-0.45,-0.08,-1.82,1.87
2.157120704650879,-0.46,-0.06,-1.64,1.7
2.1799240112304688,-0.53,-0.06,-1.5,1.59
2.180624008178711,-0.52,-0.09,-1.39,1.48
2.1873128414154053,-0.46,-0.08,-1.37,1.44
2.1973109245300293,-0.43,-0.03,-1.33,1.39
2.2075698375701904,-0.4,0.06,-1.21,1.27
2.2300329208374023,-0.39,0.21,-1.03,1.12
2.2307398319244385,-0.38,0.35,-0.85,0.99
2.237673759460449,-0.42,0.5,-0.75,0.99
2.2477869987487793,-0.48,0.65,-0.74,1.09
2.25797700881958,-0.51,0.79,-0.73,1.19
2.2802138328552246,-0.53,0.89,-0.57,1.18
2.2809319496154785,-0.51,0.94,-0.23,1.09
2.2880959510803223,-0.39,0.91,0.13,0.99
2.2980527877807617,-0.21,0.86,0.4,0.97
2.3081247806549072,-0.08,0.85,0.74,1.12
2.329864978790283,0.05,0.79,1.04,1.3
2.33058500289917,0.07,0.71,1.34,1.51
2.3384108543395996,-0.01,0.48,1.7,1.76
2.3482789993286133,-0.08,0.17,2.17,2.17
2.3584909439086914,-0.12,0.05,2.7,2.7
2.37937068939209,-0.18,0.2,3.15,3.16
2.380016803741455,-0.18,0.89,3.31,3.43
2.3886847496032715,0.08,1.52,2.96,3.32
2.3986668586730957,0.37,1.54,2.23,2.73
2.4088778495788574,0.44,1.3,1.69,2.17
2.4290947914123535,0.41,1.2,1.75,2.16
2.429682731628418,0.34,0.9,2.14,2.34
2.4389729499816895,0.41,0.35,2.55,2.6
2.4490017890930176,0.43,-0.26,2.62,2.66
2.459195852279663,0.25,-0.95,2.44,2.63
2.4795148372650146,0.07,-1.61,2.21,2.73
2.4801127910614014,0.03,-1.99,1.99,2.81
2.489344835281372,0.18,-1.97,1.75,2.64
2.499281883239746,0.28,-1.67,1.25,2.1
2.5093698501586914,0.41,-1.17,0.33,1.28
2.530334949493408,0.38,-0.6,-0.59,0.92
2.5309898853302,0.36,-0.06,-1.23,1.28
2.5397207736968994,0.24,0.24,-1.73,1.76
2.549548864364624,0.09,0.31,-2.08,2.1
2.5597188472747803,0.04,0.24,-2.18,2.19
2.579463005065918,0.1,-0.01,-1.8,1.8
2.580082893371582,0.25,-0.32,-1.15,1.21
2.590040683746338,0.33,-0.68,-0.58,0.95
2.6003048419952393,0.35,-1.11,-0.19,1.17
2.610400676727295,0.38,-1.44,0.05,1.49
2.629711866378784,0.37,-1.58,0.21,1.63
2.6303858757019043,0.25,-1.58,0.26,1.62
2.6404337882995605,0.08,-1.47,0.23,1.49
2.6504108905792236,-0.04,-1.19,0.03,1.19
2.660646915435791,-0.12,-0.9,-0.42,1.0
2.680039882659912,-0.09,-0.61,-0.98,1.15
2.6807498931884766,0.0,-0.36,-1.57,1.61
2.6907567977905273,0.02,-0.19,-2.09,2.09
2.700476884841919,0.06,-0.14,-2.41,2.41
2.7107887268066406,0.07,-0.1,-2.56,2.56
2.7298498153686523,0.16,-0.09,-2.54,2.54
2.73077392578125,0.13,-0.17,-2.33,2.33
2.7409887313842773,0.03,-0.21,-2.04,2.05
2.751041889190674,0.0,-0.22,-1.82,1.83
2.7611467838287354,0.02,-0.23,-1.71,1.72
2.7800779342651367,0.0,-0.23,-1.6,1.61
2.781106948852539,0.03,-0.17,-1.4,1.41
2.7913308143615723,0.14,-0.09,-1.2,1.21
2.801271915435791,0.21,-0.01,-1.01,1.03
2.8114888668060303,0.31,0.05,-0.79,0.85
2.8296937942504883,0.39,0.11,-0.5,0.64
2.831301689147949,0.43,0.24,-0.21,0.53
2.84158992767334,0.47,0.38,-0.05,0.6
2.8514537811279297,0.5,0.52,-0.06,0.72
2.8617238998413086,0.5,0.7,-0.22,0.88
2.879783868789673,0.47,0.88,-0.36,1.06
2.881678819656372,0.42,1.05,-0.34,1.18
2.8919906616210938,0.33,1.26,-0.22,1.32
2.9019317626953125,0.22,1.35,-0.05,1.36
2.9121158123016357,0.14,1.34,0.16,1.35
2.929705858230591,0.05,1.17,0.47,1.26
2.931942939758301,-0.06,0.94,1.0,1.37
2.9422717094421387,-0.11,0.63,1.72,1.83
2.9521336555480957,-0.14,0.28,2.36,2.38
2.9622817039489746,-0.17,-0.07,2.74,2.74
2.9793338775634766,-0.27,-0.12,2.88,2.89
2.982402801513672,-0.3,0.55,2.98,3.04
2.992597818374634,-0.42,1.19,2.88,3.14
3.002471923828125,-0.73,1.47,2.35,2.86
3.0127687454223633,-0.97,1.51,1.64,2.43
3.0300378799438477,-0.93,1.49,1.13,2.08
3.0327768325805664,-0.65,1.17,1.06,1.7
3.0429317951202393,-0.16,0.45,1.5,1.57
3.0529708862304688,0.3,-0.42,2.12,2.18
3.063058853149414,0.63,-1.25,2.54,2.9
3.079558849334717,0.65,-1.84,2.75,3.37
3.083745002746582,0.41,-2.04,2.68,3.39
3.093197822570801,0.05,-1.81,2.27,2.9
3.103149890899658,-0.32,-1.32,1.54,2.05
3.1134119033813477,-0.54,-0.96,0.71,1.31
3.1299009323120117,-0.61,-0.66,-0.12,0.9
3.1337127685546875,-0.62,-0.33,-0.82,1.07
3.1436538696289062,-0.66,-0.08,-1.19,1.36
3.1534719467163086,-0.59,0.11,-1.22,1.35
3.163672924041748,-0.52,0.09,-0.99,1.12
3.1799769401550293,-0.58,-0.08,-0.69,0.9
3.1836647987365723,-0.64,-0.31,-0.54,0.89
3.1938886642456055,-0.61,-0.53,-0.52,0.96
3.203807830810547,-0.54,-0.8,-0.5,1.08
3.2140417098999023,-0.47,-1.02,-0.45,1.2
3.2302358150482178,-0.38,-1.17,-0.37,1.28
3.2339727878570557,-0.28,-1.24,-0.3,1.3
3.244191884994507,-0.06,-1.19,-0.39,1.25
3.2542848587036133,0.03,-0.98,-0.57,1.13
3.26434588432312,0.11,-0.64,-0.86,1.07
3.2798938751220703,0.11,-0.36,-1.24,1.29
3.2843728065490723,0.03,-0.16,-1.59,1.59
3.294590950012207,-0.14,-0.02,-1.83,1.83
3.3045549392700195,-0.27,0.08,-1.91,1.93
3.3147096633911133,-0.33,0.12,-1.9,1.93
3.330596923828125,-0.3,0.13,-1.86,1.88
3.334652900695801,-0.25,0.09,-1.78,1.79
3.344888687133789,-0.19,0.03,-1.67,1.68
3.3549368381500244,-0.2,0.04,-1.46,1.47
3.3650259971618652,-0.23,0.08,-1.37,1.39
3.38015079498291,-0.3,0.17,-1.42,1.46
3.385065793991089,-0.35,0.26,-1.45,1.51
3.3951339721679688,-0.29,0.36,-1.41,1.48
3.4052648544311523,-0.23,0.44,-1.3,1.39
3.4152958393096924,-0.15,0.5,-1.23,1.33
3.429783821105957,-0.11,0.5,-1.08,1.19
3.4353628158569336,-0.12,0.48,-0.83,0.96
3.4453988075256348,-0.22,0.46,-0.5,0.71
3.455509662628174,-0.33,0.51,-0.21,0.64
3.4656388759613037,-0.39,0.62,-0.07,0.73
3.4804718494415283,-0.39,0.77,-0.04,0.86
3.485581874847412,-0.34,0.95,-0.02,1.0
3.4957847595214844,-0.23,1.02,0.06,1.04
3.50581693649292,-0.17,0.98,0.34,1.05
3.515983819961548,-0.1,0.72,0.8,1.08
3.5309739112854004,-0.01,0.22,1.45,1.46
3.536001682281494,-0.07,-0.22,2.31,2.32
3.546121835708618,-0.11,-0.2,3.25,3.25
3.55617094039917,-0.14,0.51,3.8,3.83
3.56630277633667,-0.08,1.11,3.48,3.65
3.582265853881836,-0.05,1.15,2.48,2.73
3.5862648487091064,-0.13,1.01,1.87,2.12
3.596362829208374,-0.05,0.96,1.89,2.12
3.606560707092285,0.21,0.74,2.38,2.5
3.6168909072875977,0.4,0.3,2.93,2.97
3.626769781112671,0.41,-0.12,3.13,3.15
3.6476898193359375,0.39,-0.48,2.92,2.98
3.64837384223938,0.4,-0.84,2.5,2.66
3.6569719314575195,0.34,-1.16,2.04,2.37
3.66688871383667,0.33,-1.22,1.79,2.19
3.677130699157715,0.44,-1.17,1.5,1.95
3.695955753326416,0.5,-0.92,1.13,1.54
3.6969289779663086,0.6,-0.51,0.52,0.94
3.7072818279266357,0.69,-0.15,-0.29,0.76
3.717072010040283,0.79,0.1,-1.09,1.34
3.7274367809295654,0.77,0.17,-1.76,1.92
3.7459306716918945,0.63,0.09,-2.04,2.13
3.747384786605835,0.59,-0.1,-1.77,1.86
3.757589817047119,0.49,-0.41,-1.07,1.24
3.767453670501709,0.36,-0.71,-0.41,0.89
3.777693748474121,0.34,-0.94,-0.17,1.01
3.796445846557617,0.32,-1.14,-0.17,1.19
3.7975916862487793,0.27,-1.26,-0.19,1.3
3.807860851287842,0.19,-1.28,-0.21,1.31
3.8176889419555664,0.19,-1.21,-0.29,1.25
3.8279457092285156,0.18,-1.03,-0.5,1.15
3.846219778060913,0.06,-0.8,-0.84,1.16
3.847895860671997,0.0,-0.57,-1.25,1.37
3.8581247329711914,-0.04,-0.43,-1.66,1.71
3.8680129051208496,-0.05,-0.35,-1.93,1.96
3.8781888484954834,-0.04,-0.36,-2.09,2.12
3.8963658809661865,0.02,-0.35,-2.13,2.15
3.898178815841675,0.08,-0.34,-2.09,2.11
3.9084906578063965,0.1,-0.34,-2.01,2.04
3.918402671813965,0.16,-0.23,-2.0,2.01
3.928619861602783,0.18,-0.11,-2.08,2.09
3.9460878372192383,0.23,0.08,-2.15,2.16
3.9484829902648926,0.31,0.25,-2.1,2.13
3.958779811859131,0.39,0.34,-1.94,2.0
3.968752861022949,0.47,0.39,-1.73,1.83
3.97894287109375,0.53,0.45,-1.42,1.58
3.9953527450561523,0.57,0.46,-1.09,1.31
3.998804807662964,0.59,0.49,-0.76,1.07
4.006440877914429,0.61,0.55,-0.4,0.91
4.017013788223267,0.62,0.57,-0.05,0.84
4.026691913604736,0.57,0.61,0.3,0.88
4.044369697570801,0.54,0.65,0.6,1.03
4.046623706817627,0.51,0.76,0.84,1.24
4.056867837905884,0.45,0.9,0.95,1.38
4.066880702972412,0.4,1.09,0.97,1.51
4.0770087242126465,0.38,1.27,0.91,1.6
4.095052719116211,0.25,1.27,0.86,1.55
4.097245693206787,0.05,1.2,1.08,1.61
4.107207775115967,-0.07,0.94,1.58,1.83
4.1170806884765625,-0.12,0.47,2.18,2.23
4.127474784851074,-0.14,0.08,2.78,2.78
4.145349979400635,-0.21,0.05,3.28,3.28
4.1472718715667725,-0.27,0.66,3.42,3.49
4.1576337814331055,-0.36,1.16,3.04,3.27
4.167426824569702,-0.6,1.4,2.28,2.74
4.177639007568359,-0.84,1.61,1.55,2.38
4.195469856262207,-0.94,1.61,0.97,2.1
4.197604656219482,-0.73,1.19,0.71,1.56
4.2078938484191895,-0.36,0.42,0.95,1.09
4.217756748199463,0.07,-0.56,1.52,1.62
4.228017807006836,0.5,-1.33,2.3,2.7
4.24552583694458,0.69,-1.66,2.9,3.41
4.247973918914795,0.59,-1.64,3.09,3.54
4.258677005767822,0.16,-1.39,2.7,3.04
4.268104791641235,-0.13,-0.96,1.52,1.8
4.278379917144775,-0.4,-0.59,0.06,0.71
4.295538902282715,-0.62,-0.38,-0.96,1.2
4.298221826553345,-0.64,-0.25,-1.47,1.62
4.308692932128906,-0.57,-0.18,-1.43,1.54
4.318502902984619,-0.48,-0.26,-0.83,0.99
4.328779697418213,-0.38,-0.48,-0.05,0.61
4.345099925994873,-0.31,-0.64,0.33,0.78
4.348621845245361,-0.17,-0.79,0.3,0.86
4.3588409423828125,-0.05,-0.9,0.13,0.91
4.368721961975098,0.02,-0.94,-0.11,0.94
4.378870010375977,0.09,-0.9,-0.41,0.99
4.395551681518555,0.18,-0.84,-0.68,1.09
4.399171829223633,0.21,-0.8,-0.96,1.26
4.409297943115234,0.21,-0.75,-1.32,1.53
4.41908073425293,0.22,-0.7,-1.7,1.85
4.429291725158691,0.18,-0.65,-1.96,2.07
4.446288824081421,0.17,-0.55,-2.1,2.17
4.449342727661133,0.12,-0.45,-2.21,2.25
4.459592819213867,0.11,-0.33,-2.31,2.33
4.469405889511108,0.08,-0.24,-2.4,2.41
4.479551792144775,0.04,-0.19,-2.54,2.54
4.4960548877716064,-0.06,-0.16,-2.65,2.65
4.500245809555054,-0.15,-0.12,-2.64,2.64
4.509832859039307,-0.23,-0.12,-2.46,2.47
4.5197978019714355,-0.32,-0.18,-2.13,2.16
4.529939889907837,-0.43,-0.22,-1.73,1.79
4.546125888824463,-0.49,-0.2,-1.35,1.45
4.550241947174072,-0.36,-0.04,-1.06,1.12
4.560245990753174,-0.34,0.08,-0.93,0.99
4.570129871368408,-0.28,0.25,-0.95,1.02
4.580326795578003,-0.21,0.44,-0.98,1.09
4.59641695022583,-0.17,0.61,-0.88,1.08
4.600261688232422,-0.2,0.75,-0.7,1.04
4.610610008239746,-0.22,0.86,-0.55,1.04
4.620437860488892,-0.23,0.97,-0.37,1.06
4.63071870803833,-0.28,1.04,-0.06,1.07
4.6462507247924805,-0.27,0.99,0.44,1.11
4.650611877441406,-0.23,0.87,1.12,1.43
4.6608288288116455,-0.2,0.74,1.81,1.96
4.670909881591797,-0.23,0.59,2.38,2.46
4.680949687957764,-0.28,0.4,2.78,2.82
4.696486949920654,-0.29,0.19,3.02,3.03
4.700909852981567,-0.28,0.32,3.22,3.24
4.711114883422852,-0.32,1.05,3.44,3.61
4.721185684204102,-0.08,1.62,3.32,3.69
4.731212854385376,0.27,1.72,2.79,3.28
4.745813846588135,0.33,1.5,2.33,2.79
4.751171827316284,0.1,1.49,2.42,2.84
4.761422872543335,-0.01,1.37,2.85,3.16
4.771478891372681,-0.01,0.93,3.14,3.27
4.781595706939697,-0.26,0.33,3.13,3.15
4.796444892883301,-0.32,-0.35,2.95,2.98
4.8026509284973145,-0.23,-1.03,2.75,2.94
4.811861991882324,-0.18,-1.56,2.63,3.06
4.821927785873413,-0.05,-1.69,2.43,2.96
4.831941843032837,0.18,-1.52,2.04,2.55
4.846190929412842,0.33,-1.17,1.31,1.78
4.852142810821533,0.4,-0.81,0.25,0.93
4.862191677093506,0.43,-0.43,-0.77,0.98
4.872215747833252,0.44,-0.12,-1.58,1.64
4.882229804992676,0.48,0.0,-2.04,2.09
4.896035671234131,0.52,-0.02,-2.22,2.28
4.902470827102661,0.42,-0.17,-2.09,2.13
4.912467002868652,0.41,-0.42,-1.61,1.71
4.922533988952637,0.39,-0.82,-1.1,1.42
4.932562828063965,0.29,-1.24,-0.7,1.45
4.947849750518799,0.24,-1.55,-0.47,1.63
4.9527528285980225,0.12,-1.75,-0.38,1.79
4.962680816650391,0.01,-1.81,-0.38,1.84
4.9728147983551025,-0.04,-1.7,-0.46,1.76
4.982903957366943,-0.08,-1.46,-0.67,1.6
4.996971845626831,-0.06,-1.15,-1.05,1.55
5.003098011016846,-0.07,-0.84,-1.67,1.87
5.013031005859375,-0.04,-0.54,-2.37,2.43
5.023201942443848,-0.02,-0.3,-2.92,2.93
5.04611873626709,0.0,-0.1,-3.24,3.24
5.046736717224121,0.05,0.06,-3.39,3.39
5.05333685874939,0.07,0.12,-3.32,3.32
5.063403844833374,0.08,0.15,-3.07,3.07
5.0734968185424805,0.09,0.14,-2.72,2.72
5.09626579284668,0.11,0.12,-2.37,2.37
5.096874713897705,0.17,0.11,-2.05,2.05
5.103711843490601,0.23,0.08,-1.67,1.68
5.113741874694824,0.29,0.04,-1.31,1.34
5.123810768127441,0.35,0.03,-0.9,0.96
5.1472086906433105,0.42,-0.02,-0.53,0.67
5.147823810577393,0.44,-0.04,-0.17,0.47
5.154052734375,0.44,-0.01,0.11,0.45
5.164025783538818,0.46,0.07,0.31,0.55
5.174099922180176,0.41,0.2,0.46,0.64
5.196028709411621,0.39,0.36,0.51,0.73
5.196642875671387,0.41,0.57,0.43,0.82
5.204357862472534,0.39,0.8,0.32,0.94
5.214349746704102,0.37,0.99,0.25,1.08
5.224567890167236,0.31,1.14,0.24,1.2
5.246118783950806,0.23,1.16,0.37,1.23
5.246718883514404,0.13,1.02,0.74,1.26
5.254692792892456,0.03,0.72,1.31,1.49
5.264845848083496,-0.11,0.3,2.0,2.02
5.274914741516113,-0.17,-0.07,2.71,2.71
5.295390844345093,-0.22,-0.26,3.21,3.22
5.296104907989502,-0.26,0.17,3.46,3.47
5.304937839508057,-0.33,1.01,3.37,3.53
5.314921855926514,-0.44,1.64,2.71,3.19
5.325044870376587,-0.63,1.82,1.9,2.7
5.347295761108398,-0.75,1.72,1.35,2.31
5.348007678985596,-0.63,1.29,1.27,1.91
5.355337858200073,-0.37,0.54,1.74,1.85
5.365415811538696,-0.06,-0.44,2.42,2.46
5.375497817993164,0.29,-1.38,2.98,3.29
5.397525787353516,0.51,-1.94,3.19,3.76
5.398216724395752,0.45,-2.01,3.0,3.63
5.405740737915039,0.19,-1.69,2.43,2.96
5.415714740753174,-0.07,-1.22,1.36,1.82
5.4257988929748535,-0.25,-0.8,0.03,0.83
5.446191787719727,-0.46,-0.53,-0.87,1.11
5.446814775466919,-0.66,-0.25,-1.12,1.32
5.456017971038818,-0.75,-0.12,-0.75,1.06
5.466017723083496,-0.8,-0.16,-0.22,0.84
5.476006984710693,-0.82,-0.21,-0.02,0.84
5.496104717254639,-0.84,-0.3,-0.19,0.91
5.496708869934082,-0.82,-0.37,-0.49,1.02
5.506290912628174,-0.72,-0.48,-0.71,1.11
5.516786813735962,-0.57,-0.61,-0.75,1.12
5.526548862457275,-0.36,-0.78,-0.66,1.08
5.547477722167969,-0.15,-0.97,-0.57,1.13
5.548090934753418,0.06,-1.13,-0.54,1.25
5.556746959686279,0.22,-1.2,-0.62,1.36
5.566844940185547,0.25,-1.13,-0.8,1.4
5.576812744140625,0.27,-0.98,-1.13,1.51
5.596493721008301,0.27,-0.77,-1.58,1.77
5.5971198081970215,0.22,-0.51,-2.01,2.08
5.6070556640625,0.14,-0.29,-2.32,2.34
5.616844892501831,0.11,-0.14,-2.59,2.59
5.627057790756226,0.09,-0.02,-2.78,2.78
5.646256923675537,0.1,0.05,-2.72,2.72
5.646921873092651,0.05,0.01,-2.48,2.48
5.657318830490112,-0.04,-0.04,-2.07,2.07
5.667137861251831,-0.17,-0.08,-1.62,1.63
5.6773200035095215,-0.29,-0.08,-1.4,1.43
5.695859909057617,-0.39,0.02,-1.41,1.46
5.697375774383545,-0.45,0.15,-1.46,1.53
5.70761775970459,-0.45,0.33,-1.45,1.55
5.717527866363525,-0.4,0.5,-1.33,1.47
5.727690696716309,-0.3,0.53,-1.08,1.23
5.745953798294067,-0.19,0.54,-0.69,0.89
5.747642993927002,-0.11,0.5,-0.17,0.53
5.757864952087402,-0.05,0.42,0.45,0.61
5.76779580116272,0.0,0.42,0.92,1.01
5.778048992156982,0.01,0.41,1.15,1.22
5.796064853668213,-0.01,0.44,1.2,1.27
5.797942876815796,0.01,0.49,1.11,1.21
5.808286666870117,0.0,0.43,1.01,1.09
5.818185806274414,-0.05,0.24,1.11,1.13
5.828393936157227,-0.18,-0.04,1.44,1.45
5.8458778858184814,-0.32,-0.28,1.95,1.99
5.848240852355957,-0.45,-0.28,2.56,2.61
5.858588695526123,-0.53,0.31,3.07,3.13
5.868476867675781,-0.49,0.99,3.03,3.22
5.87870979309082,-0.42,1.27,2.35,2.7
5.8956708908081055,-0.25,1.29,1.69,2.14
5.898681879043579,-0.17,1.26,1.47,1.94
5.90892481803894,-0.01,1.0,1.66,1.93
5.91882586479187,0.11,0.48,2.05,2.1
5.929078817367554,0.17,-0.05,2.48,2.48
5.946272850036621,0.19,-0.65,2.76,2.84
5.949071884155273,0.05,-1.18,2.73,2.97
5.959229946136475,-0.05,-1.43,2.45,2.83
5.969142913818359,0.06,-1.4,1.9,2.36
5.979402780532837,0.25,-1.18,1.17,1.68
5.996017932891846,0.23,-0.88,0.44,1.01
5.99938178062439,0.12,-0.58,-0.06,0.59
6.009415864944458,0.15,-0.27,-0.37,0.48
6.0195536613464355,0.19,-0.09,-0.57,0.6
6.029658794403076,0.19,-0.05,-0.8,0.82
6.046454906463623,0.19,-0.04,-1.02,1.03
6.050069808959961,0.26,-0.01,-1.16,1.18
6.059953689575195,0.31,0.02,-1.1,1.14
6.0698158740997314,0.29,-0.15,-0.99,1.04
6.080004692077637,0.24,-0.45,-0.86,0.99
6.096738815307617,0.23,-0.81,-0.6,1.03
6.100250720977783,0.15,-1.05,-0.25,1.08
6.110310792922974,0.05,-1.23,-0.01,1.23
6.120250701904297,-0.1,-1.32,0.08,1.32
6.1303839683532715,-0.26,-1.19,0.05,1.21
6.146208763122559,-0.28,-0.97,-0.1,1.01
6.1502227783203125,-0.27,-0.8,-0.42,0.94
6.1604719161987305,-0.3,-0.62,-1.01,1.22
6.17055082321167,-0.33,-0.5,-1.61,1.71
6.18068790435791,-0.36,-0.45,-1.98,2.06
6.196131706237793,-0.34,-0.37,-2.27,2.32
6.200577735900879,-0.33,-0.25,-2.42,2.45
6.210819721221924,-0.36,-0.26,-2.44,2.48
6.2209577560424805,-0.27,-0.17,-2.3,2.32
6.231140851974487,-0.14,-0.06,-2.11,2.11
6.2456018924713135,-0.04,-0.03,-2.07,2.07
6.250902891159058,0.11,0.05,-2.12,2.12
6.261195659637451,0.21,0.12,-2.1,2.11
6.271255970001221,0.27,0.2,-1.88,1.9
6.28125786781311,0.34,0.19,-1.55,1.59
6.294936656951904,0.43,0.16,-1.14,1.22
6.301329851150513,0.46,0.16,-0.7,0.85
6.311494827270508,0.52,0.19,-0.36,0.66
6.321562767028809,0.49,0.3,-0.13,0.58
6.331676959991455,0.42,0.47,-0.07,0.63
6.345960855484009,0.37,0.69,-0.17,0.8
6.351801872253418,0.33,0.88,-0.26,0.97
6.361788749694824,0.32,1.0,-0.18,1.06
6.371833801269531,0.27,1.11,0.13,1.14
6.382068872451782,0.28,1.12,0.5,1.25
6.397161960601807,0.33,0.96,0.9,1.35
6.40215277671814,0.3,0.76,1.38,1.6
6.412096977233887,0.27,0.45,1.87,1.94
6.422315835952759,0.18,0.1,2.33,2.33
6.432377815246582,0.08,-0.14,2.7,2.7
6.448223829269409,0.01,-0.2,2.86,2.86
6.452279806137085,-0.07,0.29,2.82,2.83
6.462447881698608,-0.29,1.19,2.6,2.87
6.472502708435059,-0.77,1.87,2.23,3.01
6.48266077041626,-1.12,1.95,1.46,2.68
6.498875856399536,-1.17,1.75,0.79,2.24
6.502831935882568,-1.12,1.61,0.93,2.17
6.512845993041992,-0.72,1.11,1.77,2.2
6.522873878479004,-0.17,0.29,2.62,2.64
6.533599853515625,0.27,-0.71,3.06,3.15
6.543052673339844,0.59,-1.57,3.33,3.72
6.563939809799194,0.66,-2.06,3.32,3.96
6.564648866653442,0.56,-2.12,2.81,3.56
6.573190689086914,0.18,-1.82,1.86,2.6
6.583431720733643,-0.07,-1.4,0.69,1.56
6.593411922454834,-0.3,-1.06,-0.45,1.19
6.613220691680908,-0.43,-0.74,-1.2,1.47
6.613908767700195,-0.41,-0.48,-1.65,1.76
6.623534679412842,-0.37,-0.31,-1.88,1.94
6.633436679840088,-0.28,-0.11,-1.67,1.69
6.643598794937134,-0.23,-0.05,-1.25,1.27
6.662901878356934,-0.31,-0.09,-1.01,1.06
6.663602828979492,-0.32,-0.17,-1.07,1.12
6.673835754394531,-0.18,-0.32,-1.18,1.23
6.683761835098267,0.0,-0.58,-1.06,1.2
6.693925857543945,0.14,-0.84,-0.71,1.1
6.712181806564331,0.2,-1.21,-0.36,1.27
6.713868856430054,0.29,-1.35,-0.08,1.38
6.7241950035095215,0.32,-1.26,0.01,1.3
6.734094858169556,0.29,-1.14,-0.25,1.2
6.744246006011963,0.19,-0.91,-0.8,1.22
6.762451887130737,0.2,-0.55,-1.34,1.46
6.764260768890381,0.11,-0.25,-1.81,1.83
6.774479866027832,0.06,-0.03,-2.08,2.08
6.7844038009643555,0.15,0.03,-2.26,2.26
6.794644832611084,0.11,0.08,-2.34,2.34
6.811949729919434,0.15,0.09,-2.25,2.25
6.814640998840332,0.05,0.05,-1.94,1.94
6.82484769821167,-0.06,-0.02,-1.53,1.53
6.834758758544922,-0.13,-0.08,-1.12,1.13
6.844928741455078,-0.24,-0.14,-0.89,0.93
6.862016677856445,-0.35,-0.14,-0.83,0.91
6.864948749542236,-0.41,-0.02,-0.9,0.98
6.875185966491699,-0.46,0.17,-1.03,1.14
6.885015964508057,-0.47,0.4,-1.03,1.2
6.895280838012695,-0.42,0.55,-0.94,1.16
6.912877798080444,-0.38,0.66,-0.73,1.05
6.915215969085693,-0.32,0.72,-0.37,0.87
6.925586700439453,-0.3,0.77,-0.09,0.83
6.9354567527771,-0.28,0.84,0.07,0.88
6.945558786392212,-0.3,0.97,0.25,1.04
6.962051868438721,-0.3,1.02,0.46,1.15
6.9655678272247314,-0.28,1.05,0.64,1.26
6.975705862045288,-0.31,0.99,0.82,1.32
6.985695838928223,-0.42,0.83,1.08,1.42
6.995900869369507,-0.51,0.58,1.47,1.66
7.012166976928711,-0.45,0.23,1.95,2.01
7.015964984893799,-0.32,0.06,2.51,2.53
7.026136875152588,-0.19,0.49,2.99,3.03
7.0360918045043945,0.0,1.31,2.97,3.24
7.046202659606934,0.31,1.88,2.33,3.0
7.0632898807525635,0.5,1.9,1.59,2.52
7.066741943359375,0.46,1.63,1.41,2.2
7.076472759246826,0.33,1.4,1.84,2.33
7.086370944976807,0.44,0.8,2.54,2.69
7.096595764160156,0.39,-0.06,2.99,3.01
7.112976789474487,0.17,-0.96,3.14,3.28
7.1166908740997314,0.14,-1.73,3.14,3.58
7.1267876625061035,0.14,-2.16,3.15,3.82
7.136700868606567,0.26,-2.22,2.85,3.62
7.146911859512329,0.53,-1.98,2.11,2.94
7.163201808929443,0.55,-1.69,1.14,2.11
7.166831970214844,0.73,-1.41,0.16,1.59
7.177068710327148,0.75,-1.01,-0.74,1.45
7.187150955200195,0.77,-0.55,-1.47,1.74
7.197299003601074,0.62,-0.32,-1.94,2.06
7.213161945343018,0.54,-0.18,-2.07,2.14
7.217216968536377,0.36,-0.21,-1.82,1.86
7.2274558544158936,0.18,-0.38,-1.26,1.32
7.237518787384033,0.08,-0.74,-0.77,1.07
7.247496843338013,-0.09,-1.24,-0.29,1.27
7.262950897216797,-0.29,-1.66,0.3,1.71
7.267586708068848,-0.43,-1.82,0.78,2.02
7.277775764465332,-0.6,-1.8,0.92,2.1
7.287842750549316,-0.69,-1.66,0.71,1.93
7.297897815704346,-0.62,-1.36,0.13,1.5
7.312526702880859,-0.49,-0.95,-0.74,1.3
7.317783832550049,-0.43,-0.63,-1.57,1.74
7.32805871963501,-0.31,-0.39,-2.16,2.21
7.3380608558654785,-0.18,-0.25,-2.61,2.62
7.348198890686035,-0.04,-0.08,-2.78,2.78
7.363356828689575,-0.07,-0.05,-2.82,2.82
7.368290901184082,-0.03,-0.08,-2.8,2.8
7.378285884857178,-0.09,-0.03,-2.58,2.58
7.388333797454834,-0.05,-0.09,-2.27,2.27
7.398380756378174,0.07,-0.1,-2.04,2.04
7.412770748138428,0.16,-0.09,-1.89,1.89
7.418655872344971,0.25,-0.05,-1.74,1.75
7.428754806518555,0.32,0.06,-1.62,1.65
7.43872594833374,0.32,0.16,-1.52,1.56
7.448876857757568,0.33,0.23,-1.29,1.35
7.4629058837890625,0.38,0.22,-0.95,1.04
7.468832969665527,0.41,0.27,-0.61,0.78
7.478937864303589,0.4,0.39,-0.34,0.65
7.489088773727417,0.43,0.5,-0.18,0.68
7.49912691116333,0.4,0.59,-0.18,0.73
7.51341986656189,0.33,0.75,-0.25,0.85
7.519300937652588,0.36,0.97,-0.34,1.08
7.529314994812012,0.35,1.15,-0.37,1.25
7.539392948150635,0.24,1.24,-0.21,1.28
7.563532829284668,0.18,1.22,0.13,1.24
7.5641326904296875,0.05,1.02,0.6,1.18
7.569676876068115,-0.14,0.79,1.11,1.36
7.579672813415527,-0.2,0.52,1.6,1.69
7.589730739593506,-0.28,0.18,2.07,2.09
7.614192008972168,-0.32,-0.05,2.51,2.53
7.614802837371826,-0.36,-0.14,2.66,2.68
7.620068788528442,-0.34,0.27,2.53,2.56
7.630124807357788,-0.32,1.18,2.19,2.5
7.64003586769104,-0.46,1.88,1.74,2.6
7.66254997253418,-0.67,2.12,1.32,2.58
7.663234710693359,-0.74,1.93,1.05,2.31
7.670248985290527,-0.61,1.51,1.31,2.09
7.680331707000732,-0.26,0.76,2.02,2.17
7.690384864807129,0.04,-0.23,2.74,2.74
7.713178873062134,0.31,-1.15,3.24,3.45
7.713881969451904,0.58,-1.69,3.3,3.75
7.720597743988037,0.56,-1.77,2.86,3.4
7.730624675750732,0.32,-1.51,1.98,2.51
7.740841865539551,-0.01,-1.18,0.98,1.53
7.763210773468018,-0.31,-0.91,0.04,0.96
7.763847827911377,-0.54,-0.76,-0.39,1.01
7.770903825759888,-0.59,-0.72,-0.31,0.98
7.780983924865723,-0.54,-0.76,0.1,0.93
7.79108190536499,-0.41,-0.77,0.39,0.95
7.813565731048584,-0.31,-0.66,0.48,0.87
7.81417989730835,-0.27,-0.51,0.38,0.69
7.8212809562683105,-0.28,-0.44,0.19,0.55
7.831194877624512,-0.32,-0.44,-0.02,0.54
7.841306686401367,-0.32,-0.55,-0.24,0.68
7.862510681152344,-0.27,-0.73,-0.35,0.85
7.86314582824707,-0.19,-0.97,-0.35,1.04
7.871581792831421,-0.12,-1.15,-0.45,1.24
7.881553888320923,-0.02,-1.22,-0.55,1.33
7.891747951507568,0.07,-1.14,-0.87,1.43
7.912331819534302,0.17,-0.97,-1.44,1.74
7.912954807281494,0.21,-0.77,-2.02,2.17
7.921881675720215,0.2,-0.54,-2.38,2.44
7.931963920593262,0.16,-0.34,-2.58,2.6
7.942052841186523,0.12,-0.2,-2.72,2.72
7.961362838745117,0.01,-0.09,-2.72,2.72
7.9620137214660645,-0.09,-0.06,-2.57,2.57
7.972257852554321,-0.14,-0.04,-2.35,2.35
7.982318878173828,-0.07,0.0,-2.05,2.05
7.992361783981323,-0.07,-0.02,-1.85,1.85
8.01190996170044,-0.02,-0.06,-1.74,1.74
8.012606859207153,0.06,-0.05,-1.54,1.54
8.022494792938232,0.03,-0.02,-1.22,1.22
8.032545804977417,0.03,0.01,-0.88,0.88
8.042565822601318,-0.02,0.13,-0.51,0.52
8.061705827713013,-0.08,0.25,-0.25,0.36
8.062599658966064,-0.14,0.38,-0.19,0.44
8.072991847991943,-0.25,0.56,-0.16,0.63
8.083134889602661,-0.35,0.71,-0.15,0.8
8.09317398071289,-0.38,0.85,-0.1,0.93
8.111763000488281,-0.42,0.89,-0.06,0.98
8.112896919250488,-0.43,0.91,0.07,1.0
8.123271942138672,-0.42,0.93,0.33,1.07
8.133185863494873,-0.38,0.93,0.61,1.17
8.143383979797363,-0.32,0.87,0.83,1.24
8.16186785697937,-0.37,0.82,1.17,1.47
8.163224697113037,-0.32,0.6,1.58,1.72
8.173415660858154,-0.36,0.4,2.03,2.1
8.183365821838379,-0.38,0.27,2.38,2.42
8.1940279006958,-0.31,0.49,2.63,2.69
8.212178707122803,-0.16,1.22,2.65,2.92
8.213639736175537,0.13,1.58,2.19,2.7
8.223819732666016,0.33,1.42,1.63,2.18
8.233795881271362,0.34,1.28,1.58,2.06
8.243928909301758,0.23,1.21,2.03,2.37
8.262427806854248,0.35,0.93,2.48,2.67
8.263928890228271,0.53,0.42,2.64,2.72
8.274343967437744,0.57,-0.22,2.64,2.7
8.284316778182983,0.75,-0.89,2.53,2.78
8.294288873672485,0.78,-1.47,2.51,3.01
8.312935829162598,0.62,-1.78,2.6,3.21
8.31423282623291,0.65,-1.76,2.5,3.12
8.324489831924438,0.72,-1.49,2.03,2.61
8.33434772491455,0.63,-1.15,1.16,1.75
8.344568729400635,0.52,-0.77,0.26,0.96
8.362254858016968,0.54,-0.36,-0.41,0.76
8.364577770233154,0.45,-0.27,-1.02,1.14
8.377388954162598,0.44,-0.19,-1.51,1.58
8.387481689453125,0.3,-0.29,-1.46,1.51
8.397489786148071,0.25,-0.53,-0.97,1.13
8.41334080696106,0.27,-0.85,-0.48,1.01
8.417488813400269,0.33,-1.22,-0.13,1.27
8.427702903747559,0.3,-1.52,0.05,1.55
8.437793731689453,0.34,-1.67,-0.01,1.7
8.447861671447754,0.3,-1.66,-0.23,1.7
8.463315963745117,0.27,-1.57,-0.46,1.65
8.46796178817749,0.17,-1.33,-0.61,1.47
8.477969884872437,0.12,-1.0,-0.87,1.33
8.488083839416504,0.05,-0.8,-1.29,1.51
8.498088836669922,0.01,-0.59,-1.78,1.87
8.512786865234375,0.0,-0.44,-2.22,2.26
8.518115997314453,-0.03,-0.41,-2.38,2.41
8.528321743011475,0.0,-0.4,-2.39,2.42
8.538375854492188,0.04,-0.35,-2.24,2.26
8.548449993133545,0.02,-0.31,-2.06,2.08
8.561944961547852,-0.02,-0.24,-1.98,1.99
8.56836986541748,0.01,-0.19,-1.95,1.95
8.578497886657715,0.08,-0.24,-1.94,1.95
8.588682889938354,0.02,-0.16,-1.59,1.59
8.598703861236572,0.11,-0.01,-1.55,1.55
8.6129469871521,0.17,-0.11,-1.67,1.68
8.618786811828613,0.19,-0.09,-1.43,1.44
8.628836870193481,0.25,-0.04,-1.11,1.13
8.639082908630371,0.3,0.07,-0.72,0.78
8.649089813232422,0.34,0.17,-0.35,0.51
8.664321899414062,0.42,0.26,-0.21,0.53
