time,ax,ay,az,atotal
0.0023488998413085938,-0.14,0.42,-0.91,1.01
0.012355804443359375,-0.18,0.42,-0.59,0.74
0.022302865982055664,-0.36,0.43,-0.25,0.61
0.03222179412841797,-0.49,0.45,0.02,0.66
0.044037818908691406,-0.54,0.48,0.27,0.77
0.052324771881103516,-0.57,0.53,0.45,0.89
0.06245684623718262,-0.57,0.59,0.59,1.01
0.07266688346862793,-0.43,0.69,0.58,0.99
0.08276081085205078,-0.28,0.7,0.49,0.89
0.0951988697052002,-0.1,0.71,0.45,0.84
0.10280990600585938,-0.01,0.66,0.56,0.86
0.11287879943847656,-0.02,0.56,0.93,1.08
0.12298297882080078,-0.15,0.4,1.47,1.53
0.1331188678741455,-0.32,0.25,2.0,2.04
0.14582586288452148,-0.49,0.43,2.47,2.55
0.15309882164001465,-0.65,1.14,2.73,3.02
0.1631908416748047,-0.47,1.7,2.42,2.99
0.17344880104064941,-0.1,1.68,1.6,2.32
0.18333673477172852,0.21,1.33,1.02,1.68
0.19645071029663086,0.29,1.01,1.29,1.66
0.2035226821899414,0.35,0.52,2.31,2.39
0.21356868743896484,0.27,-0.18,3.35,3.36
0.2237567901611328,0.03,-0.92,3.91,4.01
0.24569368362426758,-0.16,-1.65,3.93,4.26
0.2465677261352539,-0.13,-2.17,3.82,4.39
0.25392770767211914,-0.02,-2.35,3.64,4.33
0.2639007568359375,0.18,-2.33,3.28,4.02
0.27411794662475586,0.32,-2.06,2.56,3.3
0.2962348461151123,0.43,-1.57,1.51,2.22
0.29713988304138184,0.58,-1.04,0.61,1.33
0.30412769317626953,0.77,-0.55,-0.21,0.96
0.31415796279907227,0.87,-0.31,-1.06,1.4
0.32439374923706055,0.89,-0.19,-1.65,1.88
0.3464658260345459,0.84,-0.19,-1.78,1.97
0.34734392166137695,0.73,-0.4,-1.46,1.68
0.3545069694519043,0.49,-0.7,-0.8,1.17
0.364412784576416,0.22,-0.95,-0.2,0.99
0.37456488609313965,0.01,-1.14,-0.04,1.14
0.3924698829650879,-0.1,-1.24,-0.15,1.25
0.39449167251586914,-0.21,-1.25,-0.25,1.29
0.4047048091888428,-0.34,-1.2,-0.3,1.28
0.4146099090576172,-0.38,-1.1,-0.43,1.24
0.4250006675720215,-0.33,-0.95,-0.7,1.22
0.44127583503723145,-0.21,-0.77,-1.06,1.32
0.4447908401489258,-0.12,-0.61,-1.45,1.57
0.4551386833190918,-0.01,-0.43,-1.85,1.89
0.46503591537475586,0.14,-0.3,-2.31,2.33
0.4752039909362793,0.14,-0.25,-2.65,2.66
0.49182677268981934,0.07,-0.22,-2.73,2.73
0.49517393112182617,0.03,-0.15,-2.72,2.72
0.5054378509521484,-0.01,-0.11,-2.66,2.66
0.5152187347412109,-0.07,-0.1,-2.57,2.57
0.52569580078125,-0.11,-0.05,-2.46,2.46
0.5412838459014893,-0.04,-0.01,-2.35,2.35
0.5454788208007812,0.04,0.12,-2.13,2.13
0.5559906959533691,0.09,0.24,-1.94,1.95
0.5656998157501221,0.13,0.29,-1.83,1.85
0.5758898258209229,0.19,0.4,-1.63,1.68
0.5917568206787109,0.3,0.46,-1.37,1.47
0.5957798957824707,0.38,0.46,-1.01,1.17
0.6059978008270264,0.44,0.46,-0.54,0.83
0.6158947944641113,0.5,0.47,-0.1,0.69
0.6262907981872559,0.51,0.55,0.24,0.78
0.6413679122924805,0.45,0.62,0.38,0.85
0.6462478637695312,0.4,0.71,0.5,0.95
0.6564598083496094,0.31,0.88,0.69,1.16
0.6662569046020508,0.21,0.99,0.82,1.3
0.6764638423919678,0.12,1.03,0.89,1.36
0.6917939186096191,0.15,1.04,0.96,1.42
0.6965899467468262,0.21,0.84,1.07,1.37
0.7066769599914551,0.28,0.53,1.39,1.51
0.7168917655944824,0.28,0.21,2.07,2.09
0.7269477844238281,0.22,0.07,2.91,2.91
0.741365909576416,0.07,0.49,3.42,3.45
0.7467746734619141,-0.26,1.22,3.36,3.58
0.7570219039916992,-0.6,1.78,2.92,3.47
0.7672238349914551,-0.9,1.92,2.26,3.09
0.7771477699279785,-1.05,1.65,1.66,2.56
0.791287899017334,-0.79,1.02,1.66,2.1
0.797266960144043,-0.2,-0.15,2.17,2.18
0.8072967529296875,0.34,-1.46,3.01,3.36
0.8171408176422119,0.57,-2.18,4.01,4.59
0.8277618885040283,0.48,-2.36,4.41,5.02
0.8411579132080078,0.07,-2.28,3.57,4.23
0.8475489616394043,-0.44,-1.9,2.15,2.9
0.8575239181518555,-0.73,-1.48,0.71,1.79
0.8676187992095947,-1.06,-1.22,-0.46,1.68
0.8777799606323242,-1.07,-1.03,-0.86,1.71
0.8909707069396973,-0.88,-0.86,-0.78,1.45
0.8978466987609863,-0.79,-0.8,-0.51,1.23
0.9078857898712158,-0.84,-0.8,-0.4,1.22
0.9180018901824951,-0.78,-0.81,-0.42,1.2
0.9280498027801514,-0.67,-0.89,-0.58,1.25
0.9419059753417969,-0.48,-1.06,-0.72,1.36
0.948112964630127,-0.25,-1.17,-0.77,1.42
0.9583396911621094,-0.01,-1.22,-0.81,1.46
0.968195915222168,0.2,-1.21,-0.83,1.48
0.9784348011016846,0.37,-1.15,-0.93,1.52
0.9929227828979492,0.5,-1.08,-1.21,1.69
0.9985179901123047,0.62,-1.05,-1.56,1.98
1.0087099075317383,0.73,-0.89,-1.85,2.17
1.0185458660125732,0.77,-0.76,-2.09,2.35
1.0287768840789795,0.69,-0.61,-2.19,2.37
1.0437359809875488,0.56,-0.49,-2.26,2.37
1.0488576889038086,0.37,-0.35,-2.33,2.38
1.0590977668762207,0.17,-0.29,-2.48,2.5
1.0689308643341064,0.07,-0.2,-2.64,2.64
1.079115867614746,-0.07,-0.03,-2.63,2.63
1.0943498611450195,-0.15,0.01,-2.51,2.51
1.099207878112793,-0.13,0.03,-2.23,2.23
1.109311819076538,-0.13,0.06,-1.87,1.87
1.1192169189453125,-0.17,0.09,-1.54,1.55
1.1293768882751465,-0.19,0.06,-1.24,1.25
1.1448228359222412,-0.24,0.07,-0.93,0.96
1.1495368480682373,-0.32,0.09,-0.67,0.74
1.1597068309783936,-0.42,0.15,-0.47,0.64
1.169651985168457,-0.46,0.3,-0.35,0.65
1.1797966957092285,-0.48,0.47,-0.33,0.74
1.1957437992095947,-0.47,0.63,-0.29,0.83
1.1998586654663086,-0.46,0.8,-0.14,0.93
1.2100329399108887,-0.43,0.97,0.12,1.06
1.2199947834014893,-0.46,1.03,0.45,1.21
1.2301218509674072,-0.5,1.03,0.8,1.39
1.2461867332458496,-0.44,1.02,1.16,1.6
1.2505669593811035,-0.35,0.93,1.39,1.7
1.2603988647460938,-0.3,0.66,1.62,1.77
1.2703168392181396,-0.25,0.41,2.07,2.12
1.2804536819458008,-0.28,0.57,2.66,2.73
1.2966656684875488,-0.46,1.11,3.1,3.32
1.3005647659301758,-0.44,1.5,3.14,3.5
1.3107256889343262,-0.23,1.71,2.81,3.29
1.3208158016204834,-0.08,1.69,2.38,2.92
1.3308167457580566,-0.05,1.56,2.42,2.87
1.3475847244262695,0.02,1.06,2.84,3.03
1.350700855255127,0.06,0.28,3.2,3.21
1.3609809875488281,0.02,-0.61,3.52,3.57
1.3711047172546387,0.15,-1.44,4.15,4.39
1.3811237812042236,0.35,-2.19,4.7,5.19
1.3966708183288574,0.39,-2.57,4.93,5.57
1.4011998176574707,0.38,-2.47,4.54,5.18
1.4112677574157715,0.42,-2.05,3.37,3.96
1.421475887298584,0.4,-1.51,1.78,2.36
1.4314846992492676,0.54,-0.98,0.47,1.21
1.4464337825775146,0.63,-0.52,-0.77,1.12
1.4514060020446777,0.88,-0.37,-1.74,1.98
1.4616527557373047,0.92,-0.34,-2.31,2.5
1.4717187881469727,0.87,-0.57,-2.37,2.58
1.481644868850708,0.74,-0.83,-1.83,2.14
1.4948339462280273,0.46,-1.18,-1.0,1.61
1.5017127990722656,0.21,-1.51,-0.38,1.57
1.511934757232666,0.04,-1.64,-0.4,1.68
1.5220987796783447,-0.17,-1.68,-0.73,1.83
1.5321578979492188,-0.29,-1.69,-0.97,1.97
1.5451407432556152,-0.32,-1.61,-1.02,1.93
1.5520730018615723,-0.25,-1.47,-1.07,1.83
1.5622286796569824,-0.14,-1.3,-1.21,1.78
1.572361946105957,-0.01,-1.13,-1.54,1.91
1.5823659896850586,0.07,-0.96,-1.87,2.1
1.5962786674499512,0.09,-0.76,-2.15,2.28
1.6025257110595703,0.12,-0.59,-2.46,2.53
1.6126148700714111,0.1,-0.44,-2.74,2.77
1.6226587295532227,0.02,-0.32,-2.98,2.99
1.6327967643737793,-0.09,-0.22,-3.16,3.16
1.6466479301452637,-0.18,-0.15,-3.2,3.2
1.6528139114379883,-0.24,-0.08,-3.06,3.07
1.6629328727722168,-0.27,-0.01,-2.82,2.83
1.672947883605957,-0.23,0.01,-2.55,2.56
1.683058738708496,-0.09,0.04,-2.24,2.24
1.6971628665924072,0.06,0.07,-1.92,1.92
1.7031097412109375,0.16,0.07,-1.59,1.59
1.7132258415222168,0.21,0.07,-1.18,1.2
1.7234129905700684,0.24,0.14,-0.68,0.73
1.7338409423828125,0.23,0.23,-0.25,0.41
1.7434659004211426,0.17,0.36,-0.05,0.4
1.7636489868164062,0.12,0.61,0.01,0.62
1.7645127773284912,0.06,0.9,0.02,0.9
1.773770809173584,0.05,1.15,0.05,1.15
1.7839207649230957,0.1,1.33,0.09,1.33
1.793874740600586,0.14,1.42,0.12,1.43
1.8129496574401855,0.11,1.46,0.32,1.49
1.8138647079467773,0.1,1.36,0.61,1.49
1.8240528106689453,0.1,1.19,0.99,1.55
1.8339118957519531,0.07,0.98,1.4,1.71
1.844045877456665,0.07,0.67,1.75,1.87
1.8643479347229004,0.16,0.3,2.11,2.13
1.8652467727661133,0.22,-0.04,2.64,2.64
1.8743078708648682,0.14,-0.06,3.34,3.34
1.884300708770752,0.02,0.35,3.8,3.81
1.8944997787475586,-0.11,1.09,3.6,3.76
1.912949800491333,-0.42,1.81,2.69,3.26
1.914388656616211,-0.67,2.13,1.75,2.83
1.9246296882629395,-0.67,2.03,1.27,2.48
1.9346399307250977,-0.34,1.39,1.35,1.96
1.9447946548461914,0.1,0.23,2.17,2.18
1.9632267951965332,0.61,-1.01,3.28,3.48
1.964716911315918,0.85,-1.85,4.09,4.56
1.9749407768249512,0.7,-2.16,4.52,5.05
1.9849519729614258,0.26,-2.12,4.1,4.62
1.9951448440551758,-0.27,-1.89,2.96,3.52
2.0136828422546387,-0.61,-1.56,1.77,2.43
2.0150158405303955,-0.88,-1.38,0.77,1.8
2.0253348350524902,-1.02,-1.22,0.34,1.62
2.0352768898010254,-1.03,-1.12,0.22,1.53
2.045468807220459,-1.07,-0.99,0.17,1.46
2.0632786750793457,-1.05,-0.95,0.0,1.41
2.0655226707458496,-0.96,-0.95,-0.25,1.37
2.075713872909546,-0.9,-1.03,-0.48,1.44
2.0856688022613525,-0.82,-1.16,-0.76,1.61
2.0957658290863037,-0.59,-1.23,-0.92,1.64
2.112881660461426,-0.36,-1.27,-1.04,1.68
2.115731716156006,-0.14,-1.3,-1.14,1.73
2.125978946685791,0.06,-1.28,-1.34,1.85
2.1357548236846924,0.25,-1.24,-1.7,2.11
2.1460788249969482,0.41,-1.18,-2.12,2.46
2.163468837738037,0.46,-1.06,-2.41,2.67
2.1661717891693115,0.47,-0.93,-2.65,2.84
2.1762237548828125,0.46,-0.81,-2.87,3.01
2.1862339973449707,0.38,-0.71,-3.01,3.11
2.196502685546875,0.25,-0.61,-3.09,3.15
2.2144579887390137,0.13,-0.53,-3.12,3.16
2.2164559364318848,0.07,-0.41,-3.11,3.13
2.226625919342041,0.05,-0.31,-2.97,2.98
2.236618995666504,0.08,-0.18,-2.74,2.74
2.246699810028076,0.1,-0.09,-2.53,2.53
2.2634377479553223,0.11,-0.04,-2.27,2.27
2.2674148082733154,0.06,-0.06,-1.95,1.95
2.2769968509674072,0.05,-0.08,-1.54,1.54
2.287073850631714,-0.07,-0.05,-1.14,1.14
2.29707670211792,-0.19,-0.04,-0.7,0.72
2.314140796661377,-0.26,0.01,-0.27,0.37
2.3173298835754395,-0.3,0.09,0.12,0.33
2.327225685119629,-0.31,0.2,0.48,0.6
2.337296962738037,-0.3,0.36,0.71,0.85
2.3473498821258545,-0.33,0.59,0.72,0.98
2.3640148639678955,-0.33,0.88,0.53,1.07
2.36739182472229,-0.3,1.12,0.31,1.2
2.3775198459625244,-0.23,1.31,0.22,1.34
2.387481689453125,-0.11,1.42,0.27,1.44
2.3976616859436035,-0.04,1.32,0.46,1.39
2.4143807888031006,0.02,1.09,0.85,1.38
2.417691707611084,0.02,0.79,1.38,1.59
2.427823781967163,0.02,0.49,2.06,2.11
2.438032865524292,-0.1,0.44,2.8,2.83
2.448180675506592,-0.37,0.92,3.3,3.44
2.46382999420166,-0.3,1.48,3.28,3.61
2.4681458473205566,0.1,1.73,2.78,3.27
2.478287696838379,0.43,1.56,2.2,2.73
2.488381862640381,0.49,1.4,2.05,2.53
2.498358726501465,0.5,1.06,2.41,2.67
2.5123958587646484,0.4,0.5,3.17,3.23
2.5182688236236572,0.3,-0.24,3.52,3.54
2.528479814529419,0.23,-0.84,4.01,4.1
2.5385348796844482,0.28,-1.74,4.25,4.6
2.548640727996826,0.43,-2.27,4.35,4.92
2.5619359016418457,0.75,-2.44,3.97,4.71
2.5688068866729736,1.02,-2.46,2.92,3.95
2.578709840774536,0.94,-2.16,1.56,2.82
2.588967800140381,1.0,-1.71,0.46,2.03
2.598949909210205,0.97,-1.24,-0.58,1.67
2.6113028526306152,0.89,-0.92,-1.41,1.9
2.6191020011901855,0.82,-0.67,-1.88,2.15
2.6291768550872803,0.76,-0.58,-1.98,2.19
2.639190673828125,0.64,-0.67,-1.89,2.1
2.6493067741394043,0.45,-0.92,-1.7,1.98
2.662113666534424,0.17,-1.16,-1.35,1.78
2.6693849563598633,0.13,-1.51,-1.01,1.82
2.679379940032959,0.13,-1.77,-0.9,1.98
2.689548969268799,0.1,-1.88,-0.86,2.06
2.699694871902466,0.08,-1.76,-0.8,1.93
2.7138278484344482,0.01,-1.52,-0.9,1.76
2.719723701477051,-0.06,-1.21,-1.18,1.69
2.7297918796539307,-0.21,-0.89,-1.5,1.75
2.739905834197998,-0.26,-0.56,-1.76,1.86
2.7627949714660645,-0.27,-0.29,-1.91,1.95
2.7637219429016113,-0.26,-0.17,-2.11,2.13
2.770080804824829,-0.24,-0.14,-2.36,2.37
2.7801437377929688,-0.27,-0.14,-2.57,2.58
2.79024600982666,-0.24,-0.14,-2.62,2.63
2.8126306533813477,-0.21,-0.16,-2.55,2.56
2.8135037422180176,-0.14,-0.2,-2.39,2.4
2.820469856262207,-0.08,-0.2,-2.13,2.14
2.8304238319396973,-0.07,-0.23,-1.89,1.9
2.8405299186706543,0.01,-0.19,-1.59,1.6
2.86252498626709,0.07,-0.1,-1.32,1.32
2.8634109497070312,0.12,-0.05,-1.18,1.18
2.870718002319336,0.22,0.06,-1.06,1.08
2.880776882171631,0.3,0.15,-0.93,0.98
2.890880823135376,0.31,0.24,-0.71,0.81
2.9122109413146973,0.28,0.39,-0.46,0.66
2.9130749702453613,0.21,0.58,-0.24,0.66
2.9210877418518066,0.17,0.81,-0.16,0.84
2.9310989379882812,0.1,0.96,-0.23,0.99
2.94130277633667,0.15,1.14,-0.24,1.17
2.9623258113861084,0.17,1.27,-0.1,1.28
2.9632129669189453,0.18,1.28,0.11,1.29
2.9713997840881348,0.16,1.3,0.38,1.36
2.9814367294311523,0.01,1.22,0.55,1.33
2.991407871246338,-0.11,1.08,0.87,1.39
3.013173818588257,-0.26,0.8,1.36,1.59
3.014047861099243,-0.36,0.44,2.02,2.09
3.0217556953430176,-0.31,0.07,2.95,2.96
3.0317440032958984,-0.3,0.11,3.82,3.83
3.041923999786377,-0.51,0.83,4.42,4.52
3.063077926635742,-0.85,1.53,4.36,4.69
3.063973903656006,-1.12,1.93,3.54,4.18
3.072049856185913,-1.15,2.01,2.49,3.4
3.082096815109253,-0.91,1.78,1.61,2.56
3.0922138690948486,-0.55,1.0,1.38,1.79
3.11204195022583,0.07,-0.2,1.87,1.88
3.112809658050537,0.56,-1.41,2.71,3.1
3.1224169731140137,0.71,-2.25,3.52,4.23
3.1324307918548584,0.71,-2.66,3.99,4.84
3.14253568649292,0.48,-2.5,3.81,4.58
3.1639719009399414,0.05,-2.05,2.9,3.55
3.1648848056793213,-0.24,-1.5,1.83,2.37
3.172677993774414,-0.35,-1.17,0.49,1.31
3.1827468872070312,-0.37,-1.0,-0.81,1.33
3.1929168701171875,-0.39,-0.75,-1.7,1.89
3.214676856994629,-0.41,-0.43,-1.87,1.96
3.2155957221984863,-0.56,-0.34,-1.55,1.68
3.223094940185547,-0.72,-0.38,-1.18,1.43
3.2331347465515137,-0.84,-0.54,-1.13,1.5
3.243222713470459,-0.89,-0.78,-1.14,1.64
3.2624969482421875,-0.71,-1.07,-1.07,1.67
3.2633209228515625,-0.37,-1.32,-0.92,1.65
3.273303985595703,-0.04,-1.5,-0.78,1.69
3.2838706970214844,0.2,-1.61,-0.77,1.79
3.2934978008270264,0.32,-1.64,-0.85,1.87
3.3124279975891113,0.4,-1.51,-1.01,1.86
3.3133797645568848,0.45,-1.31,-1.27,1.87
3.3236918449401855,0.35,-1.08,-1.56,1.92
3.333807945251465,0.29,-0.85,-1.87,2.07
3.343883991241455,0.24,-0.64,-2.14,2.24
3.36134672164917,0.22,-0.44,-2.38,2.43
3.3637046813964844,0.15,-0.24,-2.59,2.6
3.374084949493408,0.08,-0.11,-2.81,2.81
3.3838729858398438,0.06,0.01,-2.73,2.73
3.3941078186035156,0.08,0.07,-2.39,2.39
3.4116098880767822,0.06,0.08,-1.97,1.97
3.4140877723693848,0.01,0.03,-1.65,1.65
3.424309730529785,-0.1,0.03,-1.43,1.43
3.4342668056488037,-0.19,0.06,-1.3,1.31
3.4445319175720215,-0.26,0.08,-1.2,1.23
3.462728977203369,-0.34,0.17,-1.04,1.1
3.464345932006836,-0.41,0.25,-0.86,0.98
3.4747138023376465,-0.37,0.34,-0.6,0.78
3.484557867050171,-0.36,0.45,-0.34,0.66
3.4948549270629883,-0.35,0.5,-0.07,0.61
3.5125179290771484,-0.44,0.53,0.21,0.72
3.514716863632202,-0.27,0.72,0.58,0.96
3.5249876976013184,-0.31,0.77,0.86,1.19
3.534904956817627,-0.34,0.78,1.02,1.32
3.545039653778076,-0.32,0.85,1.12,1.44
3.5621728897094727,-0.31,0.84,1.2,1.49
3.56506085395813,-0.34,0.74,1.42,1.63
3.5753517150878906,-0.38,0.52,1.77,1.88
3.5852389335632324,-0.45,0.27,2.31,2.36
3.5954856872558594,-0.48,0.22,2.95,2.99
3.6127820014953613,-0.55,0.83,3.49,3.62
3.6154026985168457,-0.4,1.52,3.43,3.77
3.625595808029175,-0.05,1.74,2.65,3.17
3.6355528831481934,0.18,1.55,1.79,2.37
3.6457676887512207,0.15,1.49,1.6,2.19
3.662961006164551,0.21,1.22,2.14,2.47
3.6656668186187744,0.4,0.64,3.02,3.11
3.6759228706359863,0.42,-0.11,3.41,3.43
3.6860687732696533,0.36,-0.92,3.36,3.5
3.6960678100585938,0.45,-1.48,3.34,3.68
3.712833881378174,0.58,-1.81,3.19,3.71
3.7160608768463135,0.78,-1.88,2.87,3.51
3.726219654083252,0.93,-1.68,2.06,2.81
3.7362167835235596,0.87,-1.45,0.94,1.93
3.7463808059692383,0.99,-1.21,0.07,1.56
3.7628378868103027,0.97,-0.89,-0.54,1.42
3.7664167881011963,0.91,-0.68,-1.0,1.51
3.7766246795654297,0.88,-0.6,-1.2,1.6
3.786550998687744,0.76,-0.65,-1.14,1.51
3.7967467308044434,0.51,-0.87,-0.97,1.39
3.812964916229248,0.3,-1.07,-0.84,1.39
3.8171329498291016,0.13,-1.31,-0.85,1.56
3.826939821243286,0.04,-1.56,-0.92,1.81
3.836934804916382,0.03,-1.69,-0.91,1.91
3.8471038341522217,0.0,-1.73,-0.87,1.93
3.8624696731567383,-0.07,-1.64,-0.91,1.87
3.8673276901245117,-0.1,-1.43,-1.2,1.86
3.8773226737976074,-0.15,-1.17,-1.57,1.96
3.8871688842773438,-0.17,-0.92,-1.82,2.04
3.8974390029907227,-0.17,-0.7,-2.15,2.26
3.91257381439209,-0.18,-0.51,-2.44,2.49
3.917346954345703,-0.27,-0.4,-2.67,2.71
3.927645683288574,-0.18,-0.33,-2.84,2.86
3.9375739097595215,-0.2,-0.12,-2.9,2.9
3.947737693786621,-0.22,-0.09,-2.96,2.96
3.9624247550964355,-0.26,-0.07,-2.89,2.9
3.967690944671631,-0.25,-0.04,-2.74,2.75
3.9777588844299316,-0.17,-0.04,-2.47,2.47
3.9879767894744873,-0.05,-0.09,-2.08,2.08
3.9983086585998535,0.13,-0.16,-1.58,1.59
4.012916803359985,0.25,-0.25,-1.13,1.18
4.018035888671875,0.35,-0.3,-0.7,0.83
4.028162002563477,0.44,-0.2,-0.35,0.59
4.038205862045288,0.5,-0.04,-0.23,0.55
4.048341751098633,0.52,0.18,-0.27,0.61
4.0629496574401855,0.43,0.39,-0.31,0.65
4.068333864212036,0.32,0.61,-0.26,0.73
4.078474998474121,0.24,0.81,-0.1,0.85
4.0885796546936035,0.17,1.0,0.02,1.01
4.098678827285767,0.12,1.17,0.08,1.17
4.11529278755188,0.08,1.31,0.1,1.31
4.1186628341674805,0.02,1.4,0.19,1.41
4.128762722015381,0.01,1.41,0.28,1.43
4.139638900756836,0.0,1.33,0.44,1.4
4.1489057540893555,0.1,1.12,0.73,1.34
4.163455009460449,0.26,0.73,1.16,1.39
4.1688947677612305,0.43,0.27,1.71,1.78
4.179097890853882,0.57,-0.13,2.45,2.51
4.189226865768433,0.44,-0.12,3.24,3.27
4.199345827102661,0.12,0.54,3.9,3.93
4.213659763336182,-0.27,1.23,3.94,4.13
4.2194719314575195,-0.8,1.63,3.19,3.67
4.229428768157959,-1.15,1.74,2.41,3.18
4.239551782608032,-1.12,1.65,2.15,2.93
4.24967885017395,-0.8,1.09,2.21,2.59
4.264715671539307,-0.24,0.11,2.54,2.55
4.269780874252319,0.29,-1.18,3.07,3.3
4.279989719390869,0.57,-2.16,3.74,4.35
4.2900168895721436,0.62,-2.69,4.28,5.09
4.300630807876587,0.44,-2.73,4.23,5.05
4.310072898864746,-0.04,-2.33,3.35,4.08
4.330160856246948,-0.39,-1.71,2.21,2.82
4.331047773361206,-0.37,-1.28,0.87,1.59
4.340170860290527,-0.36,-0.93,-0.21,1.01
4.3515918254852295,-0.22,-0.64,-0.82,1.06
4.361688852310181,-0.11,-0.42,-0.92,1.01
4.380957841873169,-0.11,-0.29,-0.73,0.79
4.3818278312683105,-0.11,-0.35,-0.64,0.73
4.391963005065918,-0.2,-0.47,-0.62,0.8
4.4017908573150635,-0.38,-0.68,-0.71,1.05
4.411951780319214,-0.4,-0.96,-0.83,1.33
4.430185794830322,-0.38,-1.2,-0.88,1.53
4.431851863861084,-0.27,-1.4,-0.86,1.66
4.442095756530762,-0.19,-1.52,-0.84,1.74
4.452070713043213,-0.15,-1.55,-0.95,1.82
4.462303876876831,-0.07,-1.44,-1.26,1.91
4.4795308113098145,-0.04,-1.3,-1.76,2.18
4.4822328090667725,-0.01,-1.14,-2.23,2.5
4.492462873458862,0.03,-0.93,-2.6,2.76
4.502566814422607,0.07,-0.77,-2.74,2.84
4.512655735015869,0.03,-0.64,-2.74,2.81
4.528425693511963,-0.03,-0.52,-2.72,2.76
4.5327208042144775,-0.03,-0.38,-2.71,2.73
4.542836666107178,-0.01,-0.21,-2.8,2.8
4.552849769592285,0.0,-0.09,-2.84,2.84
4.562917709350586,-0.02,-0.08,-2.63,2.63
4.578909873962402,-0.04,-0.09,-2.24,2.24
4.582995891571045,-0.05,-0.13,-1.76,1.76
4.593122959136963,-0.1,-0.19,-1.23,1.24
4.6032068729400635,-0.09,-0.22,-0.71,0.74
4.613321781158447,-0.13,-0.21,-0.18,0.3
4.6291728019714355,-0.17,-0.14,0.12,0.25
4.63392186164856,-0.15,-0.03,0.26,0.3
4.6434547901153564,-0.19,0.14,0.39,0.45
4.6534318923950195,-0.25,0.37,0.45,0.63
4.663561820983887,-0.26,0.62,0.39,0.77
4.679322719573975,-0.37,0.92,0.21,1.01
4.6838037967681885,-0.45,1.15,-0.02,1.23
4.693830966949463,-0.44,1.32,-0.03,1.39
4.703943729400635,-0.4,1.43,0.21,1.49
4.714077949523926,-0.39,1.46,0.58,1.61
4.730556964874268,-0.48,1.37,0.92,1.71
4.734007835388184,-0.54,1.18,1.26,1.8
4.744130849838257,-0.56,0.88,1.65,1.95
4.754242897033691,-0.51,0.54,2.01,2.14
4.764237880706787,-0.37,0.29,2.36,2.4
4.780848979949951,-0.32,0.44,2.77,2.82
4.7841949462890625,-0.2,1.03,3.0,3.17
4.794376850128174,0.14,1.47,2.62,3.0
4.804459810256958,0.51,1.44,1.83,2.38
4.81457781791687,0.64,1.42,1.38,2.08
4.83007287979126,0.53,1.49,1.52,2.19
4.834549903869629,0.41,1.25,2.05,2.43
4.844733715057373,0.27,0.73,2.64,2.75
4.854813814163208,0.04,-0.19,2.93,2.93
4.864904880523682,-0.09,-1.23,3.31,3.53
4.8799920082092285,0.07,-2.21,3.67,4.28
4.884899854660034,0.33,-2.75,4.01,4.87
4.895025730133057,0.44,-2.89,3.77,4.77
4.905077934265137,0.65,-2.61,2.67,3.78
4.915203809738159,0.7,-2.07,1.27,2.52
4.929504871368408,0.69,-1.51,-0.04,1.66
4.935265779495239,0.55,-0.96,-1.31,1.71
4.945261001586914,0.55,-0.62,-2.12,2.27
4.955375671386719,0.54,-0.3,-2.44,2.51
4.965458869934082,0.37,-0.17,-2.46,2.49
4.9787437915802,0.14,-0.37,-2.19,2.22
4.985606670379639,0.01,-0.74,-1.61,1.77
4.995636940002441,-0.05,-1.11,-1.08,1.54
5.005751848220825,-0.08,-1.5,-0.75,1.67
5.01580286026001,-0.16,-1.79,-0.55,1.87
5.02989387512207,-0.24,-1.92,-0.35,1.96
5.036001682281494,-0.27,-1.81,-0.28,1.85
5.045939922332764,-0.33,-1.55,-0.48,1.65
5.056063890457153,-0.4,-1.27,-0.85,1.57
5.066162824630737,-0.42,-0.93,-1.26,1.62
5.080805778503418,-0.38,-0.65,-1.73,1.88
5.086207866668701,-0.27,-0.45,-2.13,2.19
5.096341848373413,-0.17,-0.3,-2.37,2.39
5.106436729431152,-0.13,-0.26,-2.37,2.38
5.128590822219849,-0.06,-0.23,-2.27,2.28
5.129508972167969,-0.08,-0.25,-2.15,2.16
5.136582851409912,-0.17,-0.28,-2.09,2.11
5.146652698516846,-0.22,-0.31,-2.06,2.09
5.156752824783325,-0.12,-0.28,-1.84,1.86
5.179897785186768,0.04,-0.22,-1.52,1.53
5.180779933929443,0.17,-0.2,-1.29,1.31
5.186964988708496,0.26,-0.11,-1.16,1.19
5.196995735168457,0.37,-0.03,-1.07,1.13
5.207144737243652,0.41,0.03,-0.94,1.02
5.230159759521484,0.39,0.09,-0.76,0.85
5.2310638427734375,0.33,0.17,-0.54,0.65
5.237173795700073,0.3,0.26,-0.3,0.49
5.247254848480225,0.3,0.34,-0.1,0.46
5.257467746734619,0.32,0.4,0.0,0.51
5.281190872192383,0.41,0.53,0.05,0.67
5.282063007354736,0.47,0.69,0.11,0.84
5.287479877471924,0.51,0.87,0.2,1.02
5.297616958618164,0.4,1.06,0.25,1.16
5.30771279335022,0.25,1.1,0.3,1.16
5.329542875289917,0.13,1.05,0.47,1.15
5.330380916595459,-0.02,0.93,0.78,1.21
5.337957859039307,-0.07,0.71,1.16,1.36
5.348034858703613,-0.13,0.21,1.64,1.65
5.358091831207275,-0.14,-0.15,2.33,2.33
5.379149913787842,-0.04,0.1,2.92,2.92
5.379920959472656,-0.14,0.79,3.28,3.37
5.388299942016602,-0.44,1.41,2.98,3.32
5.398303985595703,-0.71,1.64,2.13,2.78
5.408440828323364,-0.76,1.71,1.8,2.59
5.428300857543945,-0.56,1.45,1.87,2.43
5.42924165725708,-0.29,0.68,1.92,2.05
5.438913822174072,-0.04,-0.22,2.55,2.55
5.4486236572265625,0.2,-1.22,3.16,3.39
